"Time (s)","Acceleration x (m/s^2)","Acceleration y (m/s^2)","Acceleration z (m/s^2)","Absolute acceleration (m/s^2)"
0.000000000E0,-1.343999982E0,1.848000050E0,1.379500008E1,1.398297062E1
0.000000000E0,-1.343999982E0,1.848000050E0,1.379500008E1,1.398297062E1
0.000000000E0,-1.343999982E0,1.848000050E0,1.379500008E1,1.398297062E1
0.000000000E0,-1.343999982E0,1.848000050E0,1.379500008E1,1.398297062E1
0.000000000E0,-1.343999982E0,1.848000050E0,1.379500008E1,1.398297062E1
0.000000000E0,-1.343999982E0,1.848000050E0,1.379500008E1,1.398297062E1
0.000000000E0,-1.343999982E0,1.848000050E0,1.379500008E1,1.398297062E1
0.000000000E0,-1.343999982E0,1.848000050E0,1.379500008E1,1.398297062E1
0.000000000E0,-1.343999982E0,1.848000050E0,1.379500008E1,1.398297062E1
2.379077000E-3,-1.343999982E0,1.848000050E0,1.379500008E1,1.398297062E1
7.379077000E-3,-1.343999982E0,1.848000050E0,1.379500008E1,1.398297062E1
1.237907700E-2,-1.343999982E0,1.848000050E0,1.379500008E1,1.398297062E1
1.836938500E-2,-1.343999982E0,1.848000050E0,1.379500008E1,1.398297062E1
2.336807700E-2,-1.343999982E0,1.848000050E0,1.379500008E1,1.398297062E1
2.849507700E-2,-1.343999982E0,1.848000050E0,1.379500008E1,1.398297062E1
3.338838500E-2,-1.343999982E0,1.848000050E0,1.379500008E1,1.398297062E1
3.836330800E-2,-1.960000038E0,1.654000044E0,8.284999847E0,8.672862202E0
4.338392300E-2,-1.746000051E0,1.713000059E0,8.024999619E0,8.389487723E0
4.850400000E-2,-1.508999944E0,1.794000030E0,7.954999924E0,8.293222578E0
5.338653900E-2,-1.276999950E0,1.861999989E0,7.938000202E0,8.252855266E0
5.837053900E-2,-1.097000003E0,1.889000058E0,8.003999710E0,8.296730777E0
6.343323100E-2,-9.879999757E-1,1.850000024E0,8.163000107E0,8.428120478E0
6.841200000E-2,-9.169999957E-1,1.774999976E0,8.383999825E0,8.618756695E0
7.339207700E-2,-8.199999928E-1,1.708999991E0,8.605999947E0,8.812282113E0
7.843592300E-2,-7.089999914E-1,1.646999955E0,8.819000244E0,8.999447491E0
8.347253900E-2,-6.060000062E-1,1.595999956E0,9.019000053E0,9.179151041E0
8.873769200E-2,-4.979999959E-1,1.555999994E0,9.213000298E0,9.356736315E0
9.380607700E-2,-3.930000067E-1,1.521000028E0,9.411000252E0,9.541216685E0
9.914115400E-2,-2.890000045E-1,1.519999981E0,9.555000305E0,9.679460304E0
1.041205390E-1,-1.870000064E-1,1.552999973E0,9.595999718E0,9.722653367E0
1.094390770E-1,-1.340000033E-1,1.613999963E0,9.508000374E0,9.644948055E0
1.134344620E-1,-1.870000064E-1,1.679999948E0,9.340000153E0,9.491731753E0
1.184076150E-1,-3.249999881E-1,1.702999949E0,9.140999794E0,9.303962116E0
1.234118460E-1,-4.769999981E-1,1.690000057E0,8.918999672E0,9.090224658E0
1.284082310E-1,-6.290000081E-1,1.672000051E0,8.699000359E0,8.880531089E0
1.334143850E-1,-7.730000019E-1,1.675999999E0,8.510999680E0,8.708824292E0
1.384109230E-1,-8.750000000E-1,1.722000003E0,8.371000290E0,8.590957738E0
1.439885390E-1,-9.259999990E-1,1.796000004E0,8.279999733E0,8.522997571E0
1.486274620E-1,-9.559999704E-1,1.850999951E0,8.217000008E0,8.476982122E0
1.535014620E-1,-9.760000110E-1,1.863000035E0,8.180000305E0,8.446049381E0
1.584440770E-1,-9.750000238E-1,1.850999951E0,8.180999756E0,8.444263311E0
1.634733850E-1,-9.499999881E-1,1.817999959E0,8.175999641E0,8.429388706E0
1.684411540E-1,-9.070000052E-1,1.797999978E0,8.164999962E0,8.409677598E0
1.734285390E-1,-8.510000110E-1,1.799999952E0,8.182000160E0,8.420767629E0
1.784922310E-1,-7.620000243E-1,1.796000004E0,8.227000237E0,8.455163685E0
1.845894620E-1,-6.100000143E-1,1.784000039E0,8.305000305E0,8.516324690E0
1.886569230E-1,-5.680000186E-1,1.789000034E0,8.340999603E0,8.549585927E0
1.936214620E-1,-4.950000048E-1,1.805999994E0,8.411999702E0,8.617911579E0
2.007360770E-1,-3.889999986E-1,1.847000003E0,8.473999977E0,8.681670670E0
2.034413080E-1,-3.600000143E-1,1.868000031E0,8.480999947E0,8.691742301E0
2.083934620E-1,-3.389999866E-1,1.921000004E0,8.454000473E0,8.676133125E0
2.134013850E-1,-3.470000029E-1,1.976999998E0,8.383000374E0,8.619955526E0
2.185476920E-1,-3.510000110E-1,1.990000010E0,8.302000046E0,8.544384460E0
2.234280000E-1,-3.389999866E-1,1.980999947E0,8.232000351E0,8.473789681E0
2.284425390E-1,-3.100000024E-1,1.993999958E0,8.211999893E0,8.456304044E0
2.334674620E-1,-2.649999857E-1,2.026999950E0,8.255999565E0,8.505320841E0
2.385826920E-1,-2.269999981E-1,2.076999903E0,8.309000015E0,8.567668227E0
2.434603850E-1,-2.049999982E-1,2.134999990E0,8.343999863E0,8.615252966E0
2.484442310E-1,-2.039999962E-1,2.187000036E0,8.375000000E0,8.658245212E0
2.534326150E-1,-2.049999982E-1,2.230000019E0,8.404999733E0,8.698215081E0
2.584313080E-1,-2.150000036E-1,2.255000114E0,8.449000359E0,8.747391473E0
2.635050770E-1,-2.579999864E-1,2.263000011E0,8.489999771E0,8.790212122E0
2.685860000E-1,-3.289999962E-1,2.282000065E0,8.517000198E0,8.823551307E0
2.734590770E-1,-3.950000107E-1,2.302999973E0,8.553999901E0,8.867398051E0
2.784170000E-1,-4.149999917E-1,2.303999901E0,8.586999893E0,8.900404918E0
2.834310770E-1,-4.020000100E-1,2.315000057E0,8.560000420E0,8.876623032E0
2.884880000E-1,-3.810000122E-1,2.377000093E0,8.505000114E0,8.839135557E0
2.934644620E-1,-3.659999967E-1,2.451999903E0,8.465999603E0,8.821530978E0
2.994651540E-1,-3.619999886E-1,2.503999949E0,8.432999611E0,8.804347913E0
3.033893850E-1,-3.589999974E-1,2.540999889E0,8.437999725E0,8.819603211E0
3.084784620E-1,-3.379999995E-1,2.578000069E0,8.515000343E0,8.903120756E0
3.156836920E-1,-3.100000024E-1,2.608999968E0,8.630000114E0,9.021079914E0
3.184193850E-1,-3.009999990E-1,2.621000051E0,8.680999756E0,9.073036924E0
3.234386150E-1,-2.949999869E-1,2.642999887E0,8.793999672E0,9.187322985E0
3.284805390E-1,-3.070000112E-1,2.667000055E0,8.935999870E0,9.330553680E0
3.335963850E-1,-3.109999895E-1,2.713000059E0,9.105999947E0,9.506646377E0
3.384293850E-1,-3.260000050E-1,2.782000065E0,9.255999565E0,9.670539195E0
3.434275390E-1,-3.910000026E-1,2.835999966E0,9.368000031E0,9.795672584E0
3.484385390E-1,-5.109999776E-1,2.858000040E0,9.456000328E0,9.891674651E0
3.535740770E-1,-6.650000215E-1,2.881000042E0,9.494999886E0,9.944717648E0
3.586819230E-1,-8.360000253E-1,2.921000004E0,9.482999802E0,9.957832209E0
3.646080770E-1,-1.113999963E0,2.997999907E0,9.430999756E0,9.958551890E0
3.684282310E-1,-1.200000048E0,3.022000074E0,9.395999908E0,9.942700782E0
3.734423850E-1,-1.343000054E0,3.049000025E0,9.305000305E0,9.883475147E0
3.784210770E-1,-1.399999976E0,3.066999912E0,9.206999779E0,9.804862739E0
3.834968460E-1,-1.373999953E0,3.098999977E0,9.123000145E0,9.732461578E0
3.883912310E-1,-1.312000036E0,3.145999908E0,9.052000046E0,9.672505588E0
3.934380770E-1,-1.243000031E0,3.207999945E0,8.998000145E0,9.633292237E0
3.984334620E-1,-1.205000043E0,3.293999910E0,8.939999580E0,9.603439645E0
4.035041540E-1,-1.203999996E0,3.401000023E0,8.859999657E0,9.566400110E0
4.084393080E-1,-1.233999968E0,3.502000093E0,8.781999588E0,9.534688109E0
4.158206150E-1,-1.368999958E0,3.555999994E0,8.701999664E0,9.499689206E0
4.184230770E-1,-1.429999948E0,3.556999922E0,8.680999756E0,9.489831666E0
4.234241540E-1,-1.529000044E0,3.555000067E0,8.656999588E0,9.482589756E0
4.284727690E-1,-1.595999956E0,3.523999929E0,8.701999664E0,9.523160690E0
4.335108460E-1,-1.618000031E0,3.474999905E0,8.838999748E0,9.634389705E0
4.387338460E-1,-1.606999993E0,3.428999901E0,9.022000313E0,9.784527528E0
4.435747690E-1,-1.582000017E0,3.375000000E0,9.227999687E0,9.952352852E0
4.485590770E-1,-1.539000034E0,3.298000097E0,9.446999550E0,1.012379011E1
4.538193080E-1,-1.473000050E0,3.214999914E0,9.671999931E0,1.029822976E1
4.584804620E-1,-1.368000031E0,3.148000002E0,9.902999878E0,1.048097012E1
4.635005390E-1,-1.205999970E0,3.085999966E0,1.011800003E1,1.064667818E1
4.684012310E-1,-1.115000010E0,3.059000015E0,1.021000004E1,1.071656694E1
4.735943850E-1,-8.849999905E-1,2.986000061E0,1.044600010E1,1.090038254E1
4.784049230E-1,-8.420000076E-1,2.967000008E0,1.052700043E1,1.096949366E1
4.834286150E-1,-8.159999847E-1,2.924000025E0,1.072700024E1,1.114828086E1
4.884476920E-1,-8.790000081E-1,2.888000011E0,1.097599983E1,1.138357402E1
4.936527690E-1,-1.011000037E0,2.862999916E0,1.125000000E1,1.165252718E1
4.994356920E-1,-1.264000058E0,2.832000017E0,1.160799980E1,1.201513960E1
5.034172310E-1,-1.351999998E0,2.815000057E0,1.168999958E1,1.209992643E1
5.084177690E-1,-1.529000044E0,2.789000034E0,1.177600002E1,1.219797274E1
5.140298460E-1,-1.700999975E0,2.793999910E0,1.174800014E1,1.219489007E1
5.184318460E-1,-1.822000027E0,2.834000111E0,1.160700035E1,1.208609523E1
5.234209230E-1,-1.878000021E0,2.885999918E0,1.141800022E1,1.192587979E1
5.284600000E-1,-1.922999978E0,2.911000013E0,1.121800041E1,1.174799486E1
5.339114620E-1,-1.985999942E0,2.894000053E0,1.100500011E1,1.155116702E1
5.384280770E-1,-2.078000069E0,2.868000031E0,1.079300022E1,1.135924127E1
5.434250000E-1,-2.211999893E0,2.844000101E0,1.060299969E1,1.119843214E1
5.484323850E-1,-2.358000040E0,2.822000027E0,1.045199966E1,1.108007876E1
5.533810000E-1,-2.487999916E0,2.799999952E0,1.031900024E1,1.097779164E1
5.584253080E-1,-2.607000113E0,2.763999939E0,1.022799969E1,1.091091760E1
5.655387690E-1,-2.874000072E0,2.661999941E0,1.036299992E1,1.107871325E1
5.684260000E-1,-2.989000082E0,2.615999937E0,1.050599957E1,1.123181214E1
5.734260000E-1,-3.220000029E0,2.470000029E0,1.095699978E1,1.168439748E1
5.793033850E-1,-3.421999931E0,2.236999989E0,1.161999989E1,1.231822430E1
5.834148460E-1,-3.586999893E0,1.957000017E0,1.243900013E1,1.309294243E1
5.883980000E-1,-3.686000109E0,1.684999943E0,1.330300045E1,1.390667619E1
5.934511540E-1,-3.693000078E0,1.457999945E0,1.406700039E1,1.461658351E1
5.984023850E-1,-3.589999914E0,1.258999944E0,1.464700031E1,1.513300361E1
6.035178460E-1,-3.398999929E0,1.075000048E0,1.501599979E1,1.543337537E1
6.084251540E-1,-3.193000078E0,9.020000100E-1,1.521599960E1,1.557355121E1
6.140737690E-1,-2.983999968E0,7.530000210E-1,1.530000019E1,1.560644965E1
6.185413850E-1,-2.750999928E0,6.539999843E-1,1.527700043E1,1.553648798E1
6.234162310E-1,-2.476000071E0,6.169999838E-1,1.511600018E1,1.532986388E1
6.296489230E-1,-2.184000015E0,6.510000229E-1,1.478199959E1,1.495664297E1
6.334250770E-1,-2.051000118E0,6.909999847E-1,1.455300045E1,1.471305218E1
6.408552310E-1,-1.835000038E0,8.360000253E-1,1.371000004E1,1.385749697E1
6.443174620E-1,-1.850000024E0,8.909999728E-1,1.311200047E1,1.327180987E1
6.484272310E-1,-1.881000042E0,9.060000181E-1,1.281299973E1,1.298198595E1
6.534529230E-1,-1.952000022E0,9.309999943E-1,1.220800018E1,1.239807782E1
6.584232310E-1,-2.000000000E0,9.660000205E-1,1.159599972E1,1.180679319E1
6.634398460E-1,-2.055000067E0,9.850000143E-1,1.099800014E1,1.123161865E1
6.686960770E-1,-2.131999969E0,9.819999933E-1,1.047599983E1,1.073574964E1
6.736114620E-1,-2.200000048E0,9.869999886E-1,1.006700039E1,1.035174700E1
6.784302310E-1,-2.217999935E0,1.000000000E0,9.732000351E0,1.003151806E1
6.835090770E-1,-2.174000025E0,9.959999919E-1,9.434000015E0,9.732350609E0
6.884360000E-1,-2.105999947E0,9.720000029E-1,9.203000069E0,9.490797124E0
6.936727690E-1,-2.048000097E0,9.499999881E-1,9.057999611E0,9.335103713E0
6.983821540E-1,-2.005000114E0,9.499999881E-1,8.972999573E0,9.243227075E0
7.034260770E-1,-1.965000033E0,9.549999833E-1,8.911999702E0,9.175891717E0
7.084681540E-1,-1.934999943E0,9.539999962E-1,8.883999825E0,9.142198513E0
7.139413850E-1,-1.919999957E0,9.670000076E-1,8.901000023E0,9.156925808E0
7.188423080E-1,-1.916000009E0,9.860000014E-1,8.951000214E0,9.206718029E0
7.234488460E-1,-1.899000049E0,1.000000000E0,9.034000397E0,9.285438296E0
7.285383850E-1,-1.838000059E0,1.024000049E0,9.123000145E0,9.362475739E0
7.333945390E-1,-1.740000010E0,1.065999985E0,9.175999641E0,9.400155606E0
7.384314620E-1,-1.631999969E0,1.128000021E0,9.173999786E0,9.386057747E0
7.442681540E-1,-1.541000009E0,1.202999949E0,9.100000381E0,9.307625736E0
7.484505390E-1,-1.478999972E0,1.274000049E0,8.984999657E0,9.194603628E0
7.534266920E-1,-1.442999959E0,1.345000029E0,8.869999886E0,9.086703029E0
7.584156920E-1,-1.411999941E0,1.409999967E0,8.769000053E0,8.993175506E0
7.654865390E-1,-1.340999961E0,1.453999996E0,8.704000473E0,8.925918503E0
7.683696150E-1,-1.218999982E0,1.481999993E0,8.640000343E0,8.850530542E0
7.735036920E-1,-1.093999982E0,1.503000021E0,8.531999588E0,8.732173956E0
7.784416920E-1,-1.003999949E0,1.514000058E0,8.430000305E0,8.623521161E0
7.834127690E-1,-9.190000296E-1,1.506000042E0,8.402000427E0,8.585231992E0
7.886593850E-1,-8.019999862E-1,1.496999979E0,8.470000267E0,8.638583069E0
7.934064620E-1,-7.319999933E-1,1.506000042E0,8.527000427E0,8.689855948E0
7.984020770E-1,-6.280000210E-1,1.549000025E0,8.656000137E0,8.815901740E0
8.033893080E-1,-5.920000076E-1,1.595999956E0,8.777999878E0,8.941530167E0
8.083834620E-1,-6.000000238E-1,1.623999953E0,8.892999649E0,9.059956878E0
8.135253850E-1,-6.150000095E-1,1.648000002E0,9.008999825E0,9.179117978E0
8.185126150E-1,-6.269999743E-1,1.699000001E0,9.088000298E0,9.266686537E0
8.234231540E-1,-6.460000277E-1,1.759999990E0,9.095000267E0,9.286223444E0
8.285796920E-1,-6.639999747E-1,1.792999983E0,9.029999733E0,9.230202602E0
8.334335390E-1,-6.830000281E-1,1.799999952E0,8.923999786E0,9.129307808E0
8.383936150E-1,-6.899999976E-1,1.807000041E0,8.824000359E0,9.033511580E0
8.434184620E-1,-6.579999924E-1,1.822999954E0,8.781000137E0,8.992344313E0
8.484844620E-1,-5.860000253E-1,1.853999972E0,8.812999725E0,9.024947428E0
8.534023080E-1,-5.019999743E-1,1.904999971E0,8.862999916E0,9.079305941E0
8.584023080E-1,-5.019999743E-1,1.968999982E0,8.803000450E0,9.034477396E0
8.625126920E-1,-5.019999743E-1,1.968999982E0,8.803000450E0,9.034477396E0
8.634276150E-1,-5.019999743E-1,1.968999982E0,8.803000450E0,9.034477396E0
8.683848460E-1,-6.200000048E-1,1.957999945E0,8.673999786E0,8.913833972E0
8.734271540E-1,-7.390000224E-1,1.945000052E0,8.510000229E0,8.760664937E0
8.784307690E-1,-8.220000267E-1,1.947000027E0,8.329000473E0,8.592947226E0
8.833935390E-1,-8.479999900E-1,1.965999961E0,8.135999680E0,8.413010794E0
8.884328460E-1,-8.289999962E-1,1.996000051E0,7.962999821E0,8.251098311E0
8.935660000E-1,-7.730000019E-1,2.029000044E0,7.853000164E0,8.147636575E0
8.985653850E-1,-6.700000167E-1,2.078999996E0,7.822000027E0,8.121257626E0
9.035122310E-1,-5.469999909E-1,2.157000065E0,7.848999977E0,8.158349031E0
9.084213850E-1,-4.620000124E-1,2.233000040E0,7.885000229E0,8.208103423E0
9.134543080E-1,-4.300000072E-1,2.275000095E0,7.889999866E0,8.222689544E0
9.184300000E-1,-4.210000038E-1,2.286999941E0,7.852000237E0,8.189109686E0
9.234180000E-1,-4.050000012E-1,2.280999899E0,7.789000034E0,8.126223420E0
9.284707690E-1,-3.829999864E-1,2.262000084E0,7.749000072E0,8.081481021E0
9.334323850E-1,-3.449999988E-1,2.263000011E0,7.769000053E0,8.099231808E0
9.383990770E-1,-3.100000024E-1,2.285000086E0,7.848000050E0,8.179757342E0
9.433735390E-1,-2.980000079E-1,2.293999910E0,7.902999878E0,8.234600577E0
9.484223080E-1,-2.389999926E-1,2.326999903E0,8.081000328E0,8.412765054E0
9.534060770E-1,-2.169999927E-1,2.345999956E0,8.138999939E0,8.473141377E0
9.583873850E-1,-2.010000050E-1,2.404999971E0,8.248999596E0,8.594790294E0
9.635891540E-1,-2.319999933E-1,2.476000071E0,8.369999886E0,8.731626334E0
9.684065390E-1,-3.179999888E-1,2.532999992E0,8.503999710E0,8.878920206E0
9.733972310E-1,-4.129999876E-1,2.548000097E0,8.651000023E0,9.027883189E0
9.785136150E-1,-4.839999974E-1,2.542000055E0,8.795000076E0,9.167772173E0
9.837262310E-1,-5.370000005E-1,2.552000046E0,8.942999840E0,9.315488144E0
9.884396920E-1,-5.839999914E-1,2.584000111E0,9.126999855E0,9.503696066E0
9.934542310E-1,-6.340000033E-1,2.618000031E0,9.312999725E0,9.694732799E0
9.984303850E-1,-6.930000186E-1,2.645999908E0,9.470999718E0,9.858062700E0
1.003427000E0,-7.580000162E-1,2.657000065E0,9.595000267E0,9.984900775E0
1.008445231E0,-8.270000219E-1,2.651999950E0,9.680999756E0,1.007168253E1
1.013407000E0,-8.790000081E-1,2.667999983E0,9.741000175E0,1.013794601E1
1.018439000E0,-8.870000243E-1,2.714999914E0,9.762000084E0,1.017126537E1
1.023405231E0,-8.510000110E-1,2.770999908E0,9.751000404E0,1.017274055E1
1.028478539E0,-8.019999862E-1,2.809000015E0,9.750000000E0,1.017822111E1
1.033671923E0,-7.419999838E-1,2.832000017E0,9.784999847E0,1.021356990E1
1.038567154E0,-6.940000057E-1,2.857000113E0,9.873999596E0,1.030242465E1
1.043643923E0,-6.620000005E-1,2.874000072E0,1.001200008E1,1.043734957E1
1.048432692E0,-6.629999876E-1,2.874000072E0,1.018799973E1,1.060635582E1
1.055459154E0,-7.699999809E-1,2.838999987E0,1.051599979E1,1.091966449E1
1.058700539E0,-8.259999752E-1,2.809000015E0,1.064000034E1,1.103550472E1
1.065733308E0,-9.900000095E-1,2.703999996E0,1.104100037E1,1.141032011E1
1.068479539E0,-1.044999957E0,2.670000076E0,1.118700027E1,1.154858868E1
1.073460385E0,-1.157999992E0,2.601000071E0,1.149300003E1,1.184040603E1
1.078460385E0,-1.348999977E0,2.411000013E0,1.203999996E1,1.235290739E1
1.085352077E0,-1.348999977E0,2.411000013E0,1.203999996E1,1.235290739E1
1.088417692E0,-1.402999997E0,2.335000038E0,1.221300030E1,1.251311354E1
1.093673462E0,-1.442000031E0,2.302999973E0,1.228800011E1,1.258483689E1
1.098438385E0,-1.485000014E0,2.290999889E0,1.226299953E1,1.256324254E1
1.103437077E0,-1.544000030E0,2.283999920E0,1.214099979E1,1.245007902E1
1.108432692E0,-1.585999966E0,2.278000116E0,1.205000019E1,1.236556448E1
1.114132462E0,-1.707999945E0,2.266999960E0,1.169900036E1,1.203840363E1
1.118407077E0,-1.733999968E0,2.263999939E0,1.154399967E1,1.189102098E1
1.123421385E0,-1.746000051E0,2.255000114E0,1.113700008E1,1.149636084E1
1.128798615E0,-1.598999977E0,2.269999981E0,1.032999992E1,1.069666300E1
1.133399231E0,-1.501000047E0,2.293999910E0,1.003899956E1,1.040658200E1
1.138398077E0,-1.230000019E0,2.371000051E0,9.413000107E0,9.784636544E0
1.143404308E0,-8.470000029E-1,2.473999977E0,8.779000282E0,9.160181813E0
1.148399462E0,-4.259999990E-1,2.591000080E0,8.250000000E0,8.657785942E0
1.153481385E0,-1.600000076E-2,2.700999975E0,7.849999905E0,8.301695933E0
1.158426923E0,3.950000107E-1,2.838000059E0,7.504000187E0,8.032452188E0
1.163459154E0,8.019999862E-1,3.055000067E0,7.235000134E0,7.894393980E0
1.168421615E0,1.185999990E0,3.322999954E0,7.105000019E0,7.932839967E0
1.173399539E0,1.481999993E0,3.572000027E0,7.111999989E0,8.095434022E0
1.178429154E0,1.641000032E0,3.730999947E0,7.261000156E0,8.326785993E0
1.183394539E0,1.659999967E0,3.766000032E0,7.573999882E0,8.619966957E0
1.188557231E0,1.549999952E0,3.674999952E0,8.062999725E0,8.995559409E0
1.194996846E0,1.299999952E0,3.421000004E0,9.154000282E0,9.858446230E0
1.198384462E0,1.226999998E0,3.342999935E0,9.607999802E0,1.024669887E1
1.203453923E0,1.078999996E0,3.197000027E0,1.055399990E1,1.108025108E1
1.208399308E0,8.909999728E-1,3.039000034E0,1.141899967E1,1.185001923E1
1.213403615E0,6.389999986E-1,2.834000111E0,1.209099960E1,1.243511757E1
1.218431154E0,3.179999888E-1,2.581000090E0,1.252299976E1,1.279016061E1
1.223398308E0,-3.500000015E-2,2.339999914E0,1.272599983E1,1.293939320E1
1.228790385E0,-3.170000017E-1,2.174000025E0,1.272299957E1,1.291129286E1
1.233406385E0,-4.760000110E-1,2.088999987E0,1.253400040E1,1.271580367E1
1.238671385E0,-5.509999990E-1,2.061000109E0,1.222399998E1,1.240876698E1
1.243409846E0,-5.920000076E-1,2.049999952E0,1.188199997E1,1.207207054E1
1.248428615E0,-6.359999776E-1,2.019999981E0,1.160599995E1,1.179763242E1
1.253435692E0,-7.080000043E-1,1.937999964E0,1.147399998E1,1.165803514E1
1.258403923E0,-8.270000219E-1,1.799999952E0,1.152999973E1,1.169892400E1
1.263416923E0,-8.989999890E-1,1.715999961E0,1.161699963E1,1.177741640E1
1.268401769E0,-1.060999990E0,1.519999981E0,1.185000038E1,1.199410814E1
1.273417539E0,-1.241000056E0,1.312000036E0,1.215499973E1,1.228842723E1
1.278410154E0,-1.402999997E0,1.131000042E0,1.251299953E1,1.264210139E1
1.283588692E0,-1.524999976E0,9.869999886E-1,1.285900021E1,1.298667318E1
1.288392231E0,-1.600000024E0,8.550000191E-1,1.313599968E1,1.326067542E1
1.293456154E0,-1.608000040E0,7.509999871E-1,1.328899956E1,1.340698230E1
1.299013000E0,-1.460000038E0,7.480000257E-1,1.320300007E1,1.330452235E1
1.303466000E0,-1.376999974E0,7.900000215E-1,1.307499981E1,1.317102308E1
1.308926308E0,-1.202999949E0,9.060000181E-1,1.266499996E1,1.275422553E1
1.313604923E0,-1.032999992E0,1.042000055E0,1.209300041E1,1.218168757E1
1.319395616E0,-8.519999981E-1,1.233000040E0,1.112600040E1,1.122649002E1
1.323456923E0,-8.240000010E-1,1.279000044E0,1.081400013E1,1.092050438E1
1.328703539E0,-8.360000253E-1,1.355000019E0,1.026900005E1,1.039169299E1
1.334349154E0,-9.089999795E-1,1.409000039E0,9.852999687E0,9.994656818E0
1.338419154E0,-1.024999976E0,1.422999978E0,9.597999573E0,9.756902669E0
1.344291539E0,-1.126999974E0,1.391999960E0,9.510000229E0,9.677184362E0
1.351213539E0,-1.175999999E0,1.300999999E0,9.689999580E0,9.847419401E0
1.357087616E0,-1.149999976E0,1.266000032E0,9.951000214E0,1.009691345E1
1.360603462E0,-1.101999998E0,1.264000058E0,1.023299980E1,1.036949300E1
1.363422462E0,-1.087000012E0,1.261999965E0,1.036999989E1,1.050290962E1
1.368433923E0,-1.059999943E0,1.253000021E0,1.059399986E1,1.072037509E1
1.373527077E0,-1.067000031E0,1.228000045E0,1.071599960E1,1.083877856E1
1.378751385E0,-1.075999975E0,1.200000048E0,1.072900009E1,1.084938796E1
1.383464000E0,-1.034999967E0,1.190999985E0,1.063899994E1,1.075537194E1
1.388600231E0,-9.399999976E-1,1.213000059E0,1.043599987E1,1.054822556E1
1.393455000E0,-8.320000172E-1,1.261999965E0,1.016600037E1,1.027776393E1
1.398440539E0,-7.200000286E-1,1.309999943E0,9.859000206E0,9.971679144E0
1.403414769E0,-6.029999852E-1,1.350999951E0,9.531000137E0,9.645142480E0
1.409963846E0,-5.019999743E-1,1.402999997E0,9.203000069E0,9.322854886E0
1.413385308E0,-4.399999976E-1,1.472000003E0,8.871999741E0,9.004041504E0
1.418427154E0,-4.289999902E-1,1.546000004E0,8.565999985E0,8.714959136E0
1.423457385E0,-4.600000083E-1,1.598000050E0,8.324000359E0,8.488473722E0
1.428448692E0,-4.810000062E-1,1.616000056E0,8.227000237E0,8.397996790E0
1.436370077E0,-5.210000277E-1,1.703999996E0,7.886000156E0,8.084803985E0
1.438400154E0,-5.210000277E-1,1.703999996E0,7.886000156E0,8.084803985E0
1.443465923E0,-5.299999714E-1,1.745000005E0,7.791999817E0,8.002573719E0
1.448390616E0,-5.600000024E-1,1.792999983E0,7.750999928E0,7.975365121E0
1.453441769E0,-5.970000029E-1,1.865000010E0,7.712999821E0,7.957700690E0
1.458475692E0,-6.499999762E-1,1.922000051E0,7.662000179E0,7.926085472E0
1.463872769E0,-7.200000286E-1,1.937999964E0,7.585999966E0,7.862673806E0
1.468446692E0,-7.639999986E-1,1.957999945E0,7.473000050E0,7.762936913E0
1.473741846E0,-7.730000019E-1,2.002000093E0,7.343999863E0,7.651135037E0
1.478390846E0,-7.739999890E-1,2.059999943E0,7.223000050E0,7.550788400E0
1.483429462E0,-7.739999890E-1,2.118000031E0,7.098999977E0,7.448543535E0
1.488594846E0,-7.820000052E-1,2.170000076E0,6.980999947E0,7.352195903E0
1.493473077E0,-8.220000267E-1,2.206000090E0,6.896999836E0,7.287710695E0
1.498424077E0,-8.690000176E-1,2.240999937E0,6.844999790E0,7.254740786E0
1.503428692E0,-8.939999938E-1,2.273000002E0,6.814000130E0,7.238533192E0
1.508618231E0,-9.020000100E-1,2.299999952E0,6.793000221E0,7.228309332E0
1.513704308E0,-9.010000229E-1,2.341000080E0,6.790999889E0,7.239458675E0
1.518432462E0,-8.899999857E-1,2.384000063E0,6.839000225E0,7.297087114E0
1.523395231E0,-8.750000000E-1,2.411999941E0,6.929999828E0,7.389740614E0
1.528455077E0,-8.750000000E-1,2.433000088E0,7.046999931E0,7.506352141E0
1.533547000E0,-8.989999890E-1,2.456000090E0,7.212999821E0,7.672516135E0
1.538391385E0,-9.259999990E-1,2.482000113E0,7.434000015E0,7.891904509E0
1.543460000E0,-9.240000248E-1,2.529999971E0,7.664000034E0,8.123519707E0
1.548424154E0,-9.269999862E-1,2.584000111E0,7.869999886E0,8.335063512E0
1.553388692E0,-9.670000076E-1,2.608000040E0,8.046999931E0,8.514162385E0
1.558378539E0,-9.929999709E-1,2.609999895E0,8.192999840E0,8.655830103E0
1.563382231E0,-9.800000191E-1,2.608999968E0,8.310999870E0,8.765842784E0
1.568511692E0,-9.549999833E-1,2.618000031E0,8.397000313E0,8.847347816E0
1.573440692E0,-9.369999766E-1,2.644999981E0,8.442999840E0,8.897091668E0
1.578442539E0,-9.190000296E-1,2.687000036E0,8.461000443E0,8.924856231E0
1.583439385E0,-9.169999957E-1,2.730000019E0,8.454999924E0,8.932010569E0
1.588428231E0,-9.340000153E-1,2.752000093E0,8.442999840E0,8.929171677E0
1.593487539E0,-9.869999886E-1,2.773999929E0,8.407999992E0,8.908631121E0
1.598420000E0,-1.042999983E0,2.779999971E0,8.385000229E0,8.895194076E0
1.603423616E0,-1.085000038E0,2.793999910E0,8.376000404E0,8.896125188E0
1.608492231E0,-1.093999982E0,2.809000015E0,8.380000114E0,8.905712715E0
1.613729692E0,-1.088000059E0,2.813999891E0,8.413000107E0,8.937612115E0
1.618431769E0,-1.090000033E0,2.818000078E0,8.494000435E0,9.015390613E0
1.625438923E0,-1.139000058E0,2.822000027E0,8.687999725E0,9.205560521E0
1.628432231E0,-1.167000055E0,2.809000015E0,8.760000229E0,9.273077926E0
1.633619308E0,-1.241999984E0,2.776000023E0,8.901000023E0,9.406196973E0
1.641802846E0,-1.345999956E0,2.723000050E0,9.109000206E0,9.602100286E0
1.643803769E0,-1.371000051E0,2.717000008E0,9.178000450E0,9.669406520E0
1.648465616E0,-1.401000023E0,2.724999905E0,9.321999550E0,9.812650058E0
1.654917462E0,-1.442000031E0,2.746999979E0,9.607000351E0,1.009553509E1
1.658573539E0,-1.458999991E0,2.750999928E0,9.744000435E0,1.022947829E1
1.663443385E0,-1.506000042E0,2.743000031E0,1.006599998E1,1.054117835E1
1.668426308E0,-1.580000043E0,2.691999912E0,1.043400002E1,1.089089620E1
1.673623692E0,-1.680999994E0,2.601000071E0,1.082800007E1,1.126217332E1
1.678410539E0,-1.802000046E0,2.487999916E0,1.127499962E1,1.168601575E1
1.683401000E0,-1.942000031E0,2.365999937E0,1.174800014E1,1.214021529E1
1.688415000E0,-2.122999907E0,2.233000040E0,1.218299961E1,1.256657858E1
1.693458000E0,-2.328999996E0,2.092999935E0,1.255599976E1,1.294055716E1
1.698382769E0,-2.509000063E0,1.972000003E0,1.281499958E1,1.320636512E1
1.703659616E0,-2.657000065E0,1.925999999E0,1.288099957E1,1.329245181E1
1.709597769E0,-2.759999990E0,1.975000024E0,1.269499969E1,1.314082350E1
1.713402846E0,-2.832999945E0,2.062000036E0,1.222000027E1,1.271244034E1
1.721643077E0,-2.872999907E0,2.170000076E0,1.100199986E1,1.157614053E1
1.723390462E0,-2.855999947E0,2.200999975E0,1.049800014E1,1.109996142E1
1.728388231E0,-2.796000004E0,2.273999929E0,9.503999710E0,1.016438400E1
1.733381385E0,-2.711999893E0,2.388999939E0,8.682000160E0,9.404221973E0
1.738436462E0,-2.611999989E0,2.594000101E0,8.071999550E0,8.871784330E0
1.743700769E0,-2.516999960E0,2.872999907E0,7.682000160E0,8.579192487E0
1.748656077E0,-2.480999947E0,3.109999895E0,7.546999931E0,8.531393089E0
1.753584077E0,-2.500000000E0,3.171999931E0,7.585000038E0,8.593242062E0
1.758402385E0,-2.618000031E0,3.165999889E0,7.921999931E0,8.923875972E0
1.763430462E0,-2.819000006E0,2.960000038E0,8.661000252E0,9.577123087E0
1.768479616E0,-3.029000044E0,2.563999891E0,9.786999702E0,1.056098006E1
1.773968923E0,-3.098999977E0,1.810999990E0,1.186200047E1,1.239316654E1
1.778400462E0,-3.023000002E0,1.560999990E0,1.256999969E1,1.302229405E1
1.783587000E0,-2.779999971E0,1.093999982E0,1.392199993E1,1.423893668E1
1.788433385E0,-2.551000118E0,6.600000262E-1,1.519600010E1,1.542276307E1
1.793470539E0,-2.407999992E0,2.520000041E-1,1.634900093E1,1.652730466E1
1.798429539E0,-2.315000057E0,-1.439999938E-1,1.729899979E1,1.745380631E1
1.803383539E0,-2.197000027E0,-4.860000014E-1,1.800699997E1,1.814703979E1
1.810815923E0,-1.843000054E0,-6.719999909E-1,1.865200043E1,1.875487545E1
1.813968923E0,-1.684999943E0,-6.460000277E-1,1.875499916E1,1.884161708E1
1.818438462E0,-1.378999949E0,-5.320000052E-1,1.877000046E1,1.882810617E1
1.824722923E0,-1.187000036E0,-4.110000134E-1,1.854100037E1,1.858350302E1
1.828383077E0,-1.161999941E0,-2.899999917E-1,1.803400040E1,1.807372441E1
1.833647077E0,-1.319000006E0,-1.500000060E-1,1.719799995E1,1.724915834E1
1.838401308E0,-1.634999990E0,-4.999999888E-3,1.607600021E1,1.615893044E1
1.843380077E0,-2.051000118E0,1.049999967E-1,1.483800030E1,1.497944857E1
1.848415154E0,-2.437999964E0,1.909999996E-1,1.365499973E1,1.387225081E1
1.853589308E0,-2.704999924E0,3.179999888E-1,1.262600040E1,1.291642500E1
1.858444923E0,-2.845999956E0,5.130000114E-1,1.176900005E1,1.211908606E1
1.863438846E0,-2.875999928E0,7.419999838E-1,1.107999992E1,1.147119601E1
1.868572385E0,-2.832999945E0,9.539999962E-1,1.055399990E1,1.096918040E1
1.873447077E0,-2.763000011E0,1.113999963E0,1.013300037E1,1.056185881E1
1.878372846E0,-2.688999891E0,1.210999966E0,9.779000282E0,1.021401429E1
1.883428692E0,-2.632999897E0,1.258000016E0,9.524000168E0,9.961015596E0
1.888432692E0,-2.599999905E0,1.289000034E0,9.404999733E0,9.842537303E0
1.893387846E0,-2.576999903E0,1.312000036E0,9.414999962E0,9.849086093E0
1.898460154E0,-2.542999983E0,1.320999980E0,9.506999969E0,9.929498390E0
1.903682000E0,-2.516999960E0,1.325000048E0,9.626000404E0,1.003746969E1
1.908404846E0,-2.506000042E0,1.325999975E0,9.692000389E0,1.009817725E1
1.913493692E0,-2.466000080E0,1.325999975E0,9.814000130E0,1.020558822E1
1.918425539E0,-2.391000032E0,1.319000006E0,9.864000320E0,1.023499607E1
1.923433000E0,-2.269000053E0,1.324000001E0,9.791999817E0,1.013827390E1
1.928535231E0,-2.104000092E0,1.350000024E0,9.638999939E0,9.957893164E0
1.933500385E0,-1.898000002E0,1.381999969E0,9.468999863E0,9.755730948E0
1.938471385E0,-1.649999976E0,1.422000051E0,9.291000366E0,9.542917367E0
1.945836539E0,-1.266000032E0,1.506000042E0,9.034000397E0,9.245753370E0
1.948420923E0,-1.148000002E0,1.539999962E0,8.967000008E0,9.170419457E0
1.953755308E0,-9.499999881E-1,1.601999998E0,8.833999634E0,9.028203227E0
1.958511077E0,-8.000000119E-1,1.646000028E0,8.680999756E0,8.871813393E0
1.963374846E0,-6.940000057E-1,1.684999943E0,8.520999908E0,8.713684654E0
1.968848539E0,-6.150000095E-1,1.713999987E0,8.354000092E0,8.550165992E0
1.973386616E0,-5.440000296E-1,1.710999966E0,8.152999878E0,8.348344981E0
1.978425154E0,-4.659999907E-1,1.715000033E0,7.908999920E0,8.106211251E0
1.983422154E0,-3.829999864E-1,1.733999968E0,7.636000156E0,7.839766786E0
1.988389154E0,-3.079999983E-1,1.756000042E0,7.361999989E0,7.574790029E0
1.993429077E0,-2.329999954E-1,1.781000018E0,7.120999813E0,7.344037609E0
1.998400462E0,-1.550000012E-1,1.797999978E0,6.907999992E0,7.139838431E0
2.003393846E0,-9.300000221E-2,1.820000052E0,6.690000057E0,6.933768813E0
2.008383308E0,-5.200000107E-2,1.853000045E0,6.486999989E0,6.746664511E0
2.013401385E0,-1.600000076E-2,1.884999990E0,6.322000027E0,6.597057321E0
2.018627154E0,1.300000027E-2,1.919999957E0,6.208000183E0,6.498140896E0
2.023800539E0,3.999999911E-2,1.975999951E0,6.147999763E0,6.457869378E0
2.028440000E0,8.399999887E-2,2.032999992E0,6.124000072E0,6.453179205E0
2.033605000E0,1.469999999E-1,2.062000036E0,6.106999874E0,6.447394870E0
2.038488308E0,1.959999949E-1,2.078000069E0,6.098999977E0,6.446262561E0
2.043408231E0,2.210000008E-1,2.096999884E0,6.125000000E0,6.477798585E0
2.048427692E0,2.450000048E-1,2.138999939E0,6.191999912E0,6.555624200E0
2.053562769E0,2.759999931E-1,2.209000111E0,6.301000118E0,6.682698555E0
2.058552308E0,3.219999969E-1,2.276000023E0,6.416999817E0,6.816285407E0
2.063466769E0,3.510000110E-1,2.303999901E0,6.455999851E0,6.863785445E0
2.068432616E0,3.810000122E-1,2.328000069E0,6.504000187E0,6.918581051E0
2.073425923E0,3.310000002E-1,2.322999954E0,6.494999886E0,6.905860794E0
2.078394154E0,2.370000035E-1,2.302999973E0,6.461999893E0,6.864213028E0
2.083418000E0,1.379999965E-1,2.272000074E0,6.458000183E0,6.847393278E0
2.088567308E0,7.500000298E-2,2.250999928E0,6.494999886E0,6.874419916E0
2.093477923E0,5.200000107E-2,2.244999886E0,6.585999966E0,6.958313304E0
2.098577308E0,5.099999905E-2,2.253999949E0,6.743000031E0,7.109934330E0
2.105157616E0,4.100000113E-2,2.280999899E0,7.052000046E0,7.411838246E0
2.108696154E0,3.200000152E-2,2.285000086E0,7.165999889E0,7.521555943E0
2.113444308E0,1.600000076E-2,2.286999941E0,7.376999855E0,7.723389903E0
2.118476616E0,3.000000026E-3,2.302000046E0,7.577000141E0,7.918973693E0
2.123441462E0,-5.799999833E-2,2.309000015E0,7.769000053E0,8.105072911E0
2.128382616E0,-1.850000024E-1,2.293999910E0,7.938000202E0,8.264896115E0
2.133575846E0,-3.109999895E-1,2.288000107E0,8.135000229E0,8.456352299E0
2.138602231E0,-3.529999852E-1,2.311000109E0,8.380000114E0,8.699984621E0
2.143579077E0,-3.310000002E-1,2.355000019E0,8.588999748E0,8.912154777E0
2.148426923E0,-3.170000017E-1,2.395999908E0,8.751000404E0,9.078618432E0
2.155809923E0,-3.359999955E-1,2.417000055E0,8.996999741E0,9.322059300E0
2.158443231E0,-3.540000021E-1,2.417999983E0,9.104999542E0,9.427250744E0
2.163438000E0,-3.970000148E-1,2.446000099E0,9.352999687E0,9.675697838E0
2.168426154E0,-4.359999895E-1,2.517999887E0,9.626000404E0,9.959432876E0
2.173453308E0,-4.720000029E-1,2.584000111E0,9.920999527E0,1.026284913E1
2.178497462E0,-5.320000052E-1,2.618000031E0,1.022700024E1,1.057016944E1
2.183621539E0,-5.960000157E-1,2.625999928E0,1.053100014E1,1.086982316E1
2.188389769E0,-6.100000143E-1,2.618000031E0,1.085999966E1,1.118774404E1
2.194168846E0,-5.860000253E-1,2.595000029E0,1.118299961E1,1.149508162E1
2.198656923E0,-5.740000010E-1,2.578999996E0,1.145899963E1,1.175965091E1
2.205709462E0,-6.119999886E-1,2.601999998E0,1.170800018E1,1.200925544E1
2.209518692E0,-7.070000172E-1,2.640000105E0,1.196700001E1,1.227511869E1
2.213424000E0,-8.230000138E-1,2.677999973E0,1.225100040E1,1.256726000E1
2.218614231E0,-9.430000186E-1,2.730999947E0,1.254100037E1,1.286951048E1
2.223624769E0,-1.113999963E0,2.763000011E0,1.281000042E1,1.315185446E1
2.228435385E0,-1.233000040E0,2.747999907E0,1.292599964E1,1.327227408E1
2.233423385E0,-1.552000046E0,2.668999910E0,1.311900043E1,1.347740469E1
2.238432692E0,-1.922999978E0,2.530999899E0,1.323200035E1,1.360844307E1
2.243748462E0,-2.253000021E0,2.375999928E0,1.328199959E1,1.367965269E1
2.248431385E0,-2.447999954E0,2.280999899E0,1.331200027E1,1.372607066E1
2.253438385E0,-2.470000029E0,2.302000046E0,1.331799984E1,1.373933128E1
2.258445462E0,-2.351999998E0,2.417000055E0,1.323299980E1,1.365599052E1
2.263429462E0,-2.181999922E0,2.581000090E0,1.300500011E1,1.343699048E1
2.268484231E0,-1.985999942E0,2.763000011E0,1.262100029E1,1.307164921E1
2.273556077E0,-1.741000056E0,2.951999903E0,1.207400036E1,1.255097085E1
2.278848539E0,-1.478999972E0,3.147000074E0,1.143500042E1,1.195199920E1
2.283482154E0,-1.241999984E0,3.355000019E0,1.084099960E1,1.141603528E1
2.288990077E0,-1.103999972E0,3.556999922E0,1.036100006E1,1.101005843E1
2.293472846E0,-1.088000059E0,3.711999893E0,1.000500011E1,1.072672898E1
2.298426077E0,-1.118999958E0,3.805000067E0,9.807000160E0,1.057863122E1
2.303802231E0,-1.129999995E0,3.871999979E0,9.789999962E0,1.058836074E1
2.308500308E0,-1.144000053E0,3.941999912E0,9.944999695E0,1.075876937E1
2.313440077E0,-1.210999966E0,3.974999905E0,1.024899960E1,1.105934618E1
2.319545923E0,-1.345999956E0,3.900000095E0,1.070100021E1,1.146878905E1
2.323400308E0,-1.562999964E0,3.641999960E0,1.133600044E1,1.200883169E1
2.328483923E0,-1.781999946E0,3.204999924E0,1.217099953E1,1.271144279E1
2.333439616E0,-1.932000041E0,2.661000013E0,1.313000011E1,1.353552541E1
2.338437308E0,-2.013999939E0,2.095999956E0,1.408500004E1,1.438181622E1
2.343434462E0,-1.996000051E0,1.600999951E0,1.490799999E1,1.512599355E1
2.348508923E0,-1.914000034E0,1.235999942E0,1.547299957E1,1.563984679E1
2.353440692E0,-1.850999951E0,9.789999723E-1,1.573200035E1,1.587074279E1
2.358717692E0,-1.797999978E0,7.500000000E-1,1.576900005E1,1.588888500E1
2.363717692E0,-1.631999969E0,3.869999945E-1,1.561499977E1,1.570482126E1
2.367876846E0,-1.631999969E0,3.869999945E-1,1.561499977E1,1.570482126E1
2.373408923E0,-1.457999945E0,5.900000036E-2,1.517800045E1,1.524798159E1
2.378432923E0,-1.434000015E0,-3.200000152E-2,1.496700001E1,1.503557346E1
2.383432846E0,-1.440999985E0,-1.710000038E-1,1.444999981E1,1.452267938E1
2.389406231E0,-1.455000043E0,-1.790000051E-1,1.342399979E1,1.350380822E1
2.393473385E0,-1.429000020E0,-1.220000014E-1,1.301599979E1,1.309477666E1
2.398554385E0,-1.300999999E0,6.499999762E-2,1.213700008E1,1.220670296E1
2.405863077E0,-9.689999819E-1,4.029999971E-1,1.090900040E1,1.095936402E1
2.408384154E0,-8.529999852E-1,5.130000114E-1,1.059500027E1,1.064165441E1
2.413424846E0,-6.349999905E-1,7.440000176E-1,1.015400028E1,1.020100401E1
2.418409616E0,-5.049999952E-1,9.559999704E-1,9.862000465E0,9.921089361E0
2.423401231E0,-4.580000043E-1,1.108999968E0,9.585000038E0,9.659806968E0
2.428427154E0,-4.210000038E-1,1.197999954E0,9.270999908E0,9.357557598E0
2.433536077E0,-3.589999974E-1,1.261999965E0,8.916000366E0,9.012024603E0
2.438469769E0,-2.800000012E-1,1.322000027E0,8.569000244E0,8.674897651E0
2.443432923E0,-2.070000023E-1,1.345999956E0,8.326000214E0,8.436637034E0
2.448434462E0,-1.720000058E-1,1.312000036E0,8.241000175E0,8.346556894E0
2.453403539E0,-1.749999970E-1,1.223999977E0,8.279999733E0,8.371809632E0
2.458446231E0,-1.679999977E-1,1.125000000E0,8.420000076E0,8.496484584E0
2.463415462E0,-1.120000035E-1,1.049000025E0,8.663999557E0,8.727991372E0
2.468422692E0,-3.000000026E-3,1.006999969E0,8.979000092E0,9.035291948E0
2.473438308E0,1.319999993E-1,9.929999709E-1,9.310000420E0,9.363737542E0
2.478388077E0,2.529999912E-1,9.909999967E-1,9.574999809E0,9.629470979E0
2.484368154E0,3.079999983E-1,9.909999967E-1,9.732999802E0,9.788167864E0
2.488560154E0,2.840000093E-1,9.689999819E-1,9.810000420E0,9.861831737E0
2.493428923E0,2.150000036E-1,9.029999971E-1,9.843999863E0,9.887667434E0
2.498397154E0,1.480000019E-1,8.339999914E-1,9.855999947E0,9.892330106E0
2.503438231E0,1.000000015E-1,7.839999795E-1,9.835000038E0,9.866705718E0
2.508784308E0,6.400000304E-2,7.390000224E-1,9.791999817E0,9.820054860E0
2.513443077E0,5.900000036E-2,7.149999738E-1,9.765000343E0,9.791319506E0
2.518412154E0,1.080000028E-1,7.360000014E-1,9.779999733E0,9.808249323E0
2.523411000E0,1.959999949E-1,7.839999795E-1,9.833000183E0,9.866152470E0
2.528425308E0,2.509999871E-1,8.479999900E-1,9.854000092E0,9.893605146E0
2.533668923E0,2.319999933E-1,9.060000181E-1,9.786000252E0,9.830588027E0
2.538472923E0,1.870000064E-1,9.259999990E-1,9.713000298E0,9.758832911E0
2.543438077E0,3.299999982E-2,9.390000105E-1,9.477999687E0,9.524457365E0
2.548433539E0,-1.519999951E-1,9.139999747E-1,9.135000229E0,9.181869588E0
2.553432769E0,-3.300000131E-1,8.690000176E-1,8.710000038E0,8.759461268E0
2.559076539E0,-5.590000153E-1,8.840000033E-1,8.095999718E0,8.163280496E0
2.563443846E0,-6.110000014E-1,9.179999828E-1,7.921999931E0,7.998382829E0
2.568438462E0,-6.890000105E-1,1.024999976E0,7.592999935E0,7.692788440E0
2.573481846E0,-7.609999776E-1,1.161000013E0,7.272999763E0,7.404293859E0
2.578428154E0,-8.420000076E-1,1.286000013E0,6.972000122E0,7.139435955E0
2.583423769E0,-9.169999957E-1,1.391000032E0,6.698999882E0,6.903069571E0
2.588470693E0,-9.509999752E-1,1.478999972E0,6.455999851E0,6.691171493E0
2.593390846E0,-9.390000105E-1,1.541000009E0,6.250000000E0,6.505297998E0
2.598410385E0,-9.150000215E-1,1.585000038E0,6.105000019E0,6.373419443E0
2.603447231E0,-8.970000148E-1,1.644000053E0,6.030000210E0,6.314130798E0
2.608617846E0,-8.949999809E-1,1.717000008E0,6.014999866E0,6.318966481E0
2.613440077E0,-9.309999943E-1,1.769999981E0,6.051000118E0,6.372932084E0
2.618629846E0,-9.980000257E-1,1.805999994E0,6.131999969E0,6.469858086E0
2.623420231E0,-1.090999961E0,1.827999949E0,6.225999832E0,6.579888953E0
2.628427616E0,-1.235000014E0,1.840999961E0,6.287000179E0,6.666399114E0
2.634664462E0,-1.409999967E0,1.861999989E0,6.347000122E0,6.763102425E0
2.638819231E0,-1.542999983E0,1.894999981E0,6.460000038E0,6.906770183E0
2.643439385E0,-1.595000029E0,1.932000041E0,6.610000134E0,7.068857830E0
2.648432769E0,-1.552000046E0,1.981999993E0,6.815999985E0,7.266008802E0
2.653595846E0,-1.427999973E0,2.042999983E0,7.035999775E0,7.464470891E0
2.658433385E0,-1.292000055E0,2.086999893E0,7.238999844E0,7.643817857E0
2.663426000E0,-1.200000048E0,2.086999893E0,7.452000141E0,7.831211578E0
2.668574000E0,-1.166000009E0,2.053999901E0,7.658999920E0,8.014908071E0
2.674008923E0,-1.162999988E0,2.017999887E0,7.869999886E0,8.207422903E0
2.678437846E0,-1.154000044E0,1.996000051E0,8.098999977E0,8.420779829E0
2.683361923E0,-1.111999989E0,2.013999939E0,8.322999954E0,8.635106714E0
2.688484846E0,-1.042999983E0,2.065999985E0,8.500000000E0,8.809438399E0
2.693442846E0,-9.909999967E-1,2.115999937E0,8.625000000E0,8.935891770E0
2.698523154E0,-9.850000143E-1,2.164000034E0,8.727999687E0,9.046054373E0
2.703388077E0,-1.001999974E0,2.187000036E0,8.782999992E0,9.106484611E0
2.708640923E0,-1.064000010E0,2.226000071E0,8.904000282E0,9.239501792E0
2.713434769E0,-1.136000037E0,2.260999918E0,9.012000084E0,9.360489422E0
2.718411769E0,-1.177000046E0,2.299000025E0,9.111000061E0,9.470008043E0
2.723427308E0,-1.180999994E0,2.322000027E0,9.218999863E0,9.580000187E0
2.728436231E0,-1.207000017E0,2.313999891E0,9.314000130E0,9.672747436E0
2.733439616E0,-1.284000039E0,2.296000004E0,9.416000366E0,9.776570719E0
2.738438231E0,-1.371000051E0,2.279000044E0,9.522999763E0,9.887416591E0
2.743435154E0,-1.412999988E0,2.250999928E0,9.616999626E0,9.977487231E0
2.748429923E0,-1.429999948E0,2.217999935E0,9.704000473E0,1.005644315E1
2.753455308E0,-1.483999968E0,2.197000027E0,9.807000160E0,1.015905100E1
2.758432923E0,-1.569000006E0,2.198999882E0,9.947999954E0,1.030825226E1
2.763570693E0,-1.667999983E0,2.197000027E0,1.011499977E1,1.048438140E1
2.770876693E0,-1.894999981E0,2.168999910E0,1.039400005E1,1.078567674E1
2.773446077E0,-1.980000019E0,2.141999960E0,1.050199986E1,1.089956719E1
2.778394846E0,-2.130000114E0,2.101999998E0,1.074100018E1,1.115008472E1
2.786781769E0,-2.279000044E0,2.122999907E0,1.119799995E1,1.162308792E1
2.788431308E0,-2.316999912E0,2.140000105E0,1.137100029E1,1.180032782E1
2.793393385E0,-2.392999887E0,2.174000025E0,1.172099972E1,1.215872357E1
2.798502154E0,-2.480000019E0,2.207999945E0,1.203999996E1,1.248948610E1
2.804947154E0,-2.612999916E0,2.226000071E0,1.223400021E1,1.270643955E1
2.808812846E0,-2.796000004E0,2.194999933E0,1.220300007E1,1.271018691E1
2.813739154E0,-2.963999987E0,2.164000034E0,1.191199970E1,1.246450677E1
2.818739154E0,-3.055000067E0,2.384999990E0,1.077499962E1,1.145084570E1
2.823826077E0,-3.055000067E0,2.384999990E0,1.077499962E1,1.145084570E1
2.828610231E0,-2.989000082E0,2.578000069E0,1.011900043E1,1.086160097E1
2.833610231E0,-3.000999928E0,2.842999935E0,8.935999870E0,9.845849018E0
2.841356462E0,-3.000999928E0,2.842999935E0,8.935999870E0,9.845849018E0
2.843403077E0,-3.085000038E0,2.858000040E0,8.878999710E0,9.824562347E0
2.848535154E0,-3.299000025E0,2.822000027E0,9.020999908E0,1.001126988E1
2.853402308E0,-3.414000034E0,2.763000011E0,9.234000206E0,1.022527873E1
2.858616308E0,-3.707000017E0,2.346999884E0,1.046899986E1,1.135122089E1
2.863413616E0,-3.767999887E0,2.135999918E0,1.102600002E1,1.184622283E1
2.868743616E0,-3.815000057E0,1.429999948E0,1.255300045E1,1.319761136E1
2.873420539E0,-3.767999887E0,1.245000005E0,1.300500011E1,1.359698041E1
2.878400385E0,-3.566999912E0,9.509999752E-1,1.399800014E1,1.447659827E1
2.883435154E0,-3.289000034E0,6.759999990E-1,1.517399979E1,1.554106710E1
2.888646616E0,-3.071000099E0,3.249999881E-1,1.648800087E1,1.677470832E1
2.893457539E0,-2.937000036E0,-1.110000014E-1,1.779400063E1,1.803509768E1
2.898411693E0,-2.823999882E0,-5.839999914E-1,1.881900024E1,1.903866596E1
2.903781846E0,-2.704999924E0,-1.006000042E0,1.932999992E1,1.954425639E1
2.908458154E0,-2.664000034E0,-1.307999969E0,1.931500053E1,1.954167357E1
2.913458308E0,-2.734999895E0,-1.452000022E0,1.885700035E1,1.910955234E1
2.918741846E0,-2.855000019E0,-1.429999948E0,1.809399986E1,1.837358854E1
2.923959154E0,-2.960999966E0,-1.223000050E0,1.712299919E1,1.742011341E1
2.928406308E0,-3.023000002E0,-8.579999804E-1,1.594799995E1,1.625464228E1
2.933375616E0,-3.058000088E0,-4.530000091E-1,1.460599995E1,1.492956155E1
2.938796923E0,-3.082000017E0,-1.169999987E-1,1.322599983E1,1.358084992E1
2.943391077E0,-3.094000101E0,1.459999979E-1,1.191300011E1,1.230909112E1
2.948394923E0,-3.081000090E0,3.899999857E-1,1.068599987E1,1.112812899E1
2.953416077E0,-3.063999891E0,6.460000277E-1,9.543999672E0,1.004456774E1
2.958426923E0,-3.058000088E0,9.049999714E-1,8.520999908E0,9.098232187E0
2.963421923E0,-3.052000046E0,1.133999944E0,7.652999878E0,8.316794291E0
2.969088308E0,-3.052999973E0,1.327999949E0,6.962999821E0,7.718015237E0
2.973457154E0,-3.051000118E0,1.509999990E0,6.440999985E0,7.285271614E0
2.978537385E0,-3.026000023E0,1.700999975E0,6.065000057E0,6.988154459E0
2.983406693E0,-2.980000019E0,1.878999949E0,5.827000141E0,6.809182885E0
2.988442308E0,-2.921000004E0,2.000999928E0,5.742000103E0,6.745873325E0
2.993465308E0,-2.849999905E0,2.046999931E0,5.842000008E0,6.814812709E0
2.998432539E0,-2.757999897E0,2.016999960E0,6.117000103E0,7.006607063E0
3.003455308E0,-2.651999950E0,1.927999973E0,6.494999886E0,7.275665684E0
3.008512231E0,-2.542000055E0,1.797999978E0,6.939000130E0,7.605543439E0
3.013745923E0,-2.427000046E0,1.675999999E0,7.439000130E0,8.002376406E0
3.018458154E0,-2.371000051E0,1.631999969E0,7.688000202E0,8.209166356E0
3.023456923E0,-2.253999949E0,1.569000006E0,8.149999619E0,8.600277354E0
3.028456923E0,-1.993000031E0,1.401000023E0,8.904999733E0,9.232219150E0
3.032783077E0,-1.993000031E0,1.401000023E0,8.904999733E0,9.232219150E0
3.033880846E0,-1.934000015E0,1.358999968E0,9.062000275E0,9.365206135E0
3.038431077E0,-1.878999949E0,1.312999964E0,9.220999718E0,9.501654882E0
3.043406231E0,-1.774999976E0,1.233999968E0,9.520000458E0,9.762365981E0
3.048418000E0,-1.674000025E0,1.189000010E0,9.770999908E0,9.984409663E0
3.053409154E0,-1.559000015E0,1.189000010E0,9.970999718E0,1.016194063E1
3.058406077E0,-1.417999983E0,1.207000017E0,1.009399986E1,1.026432688E1
3.063706308E0,-1.294000030E0,1.233000040E0,1.008800030E1,1.024511958E1
3.068474769E0,-1.187000036E0,1.284999967E0,9.968999863E0,1.012132167E1
3.073525154E0,-1.097000003E0,1.350000024E0,9.762999535E0,9.916756979E0
3.078604231E0,-1.027999997E0,1.398000002E0,9.494000435E0,9.651281379E0
3.083420308E0,-9.729999900E-1,1.437999964E0,9.173000336E0,9.335872109E0
3.088693616E0,-9.369999766E-1,1.472000003E0,8.795000076E0,8.966425113E0
3.093446693E0,-9.319999814E-1,1.483999968E0,8.388999939E0,8.570075837E0
3.098422000E0,-9.499999881E-1,1.498000026E0,8.015999794E0,8.209918194E0
3.103400769E0,-9.810000062E-1,1.532999992E0,7.703000069E0,7.915090653E0
3.108476077E0,-9.990000129E-1,1.570000052E0,7.434999943E0,7.664341155E0
3.113425693E0,-9.739999771E-1,1.606999993E0,7.197999954E0,7.439242453E0
3.118485385E0,-9.120000005E-1,1.641999960E0,6.998000145E0,7.245682432E0
3.123417385E0,-8.259999752E-1,1.671000004E0,6.844999790E0,7.094260997E0
3.128466923E0,-7.310000062E-1,1.726999998E0,6.731999874E0,6.988326860E0
3.133419616E0,-6.570000052E-1,1.814000010E0,6.636000156E0,6.910770082E0
3.138503462E0,-5.989999771E-1,1.902999997E0,6.538000107E0,6.835616677E0
3.143393616E0,-5.389999747E-1,1.972000003E0,6.468999863E0,6.784339629E0
3.148534385E0,-4.869999886E-1,2.000999928E0,6.456999779E0,6.777463821E0
3.153394462E0,-4.390000105E-1,1.990000010E0,6.465000153E0,6.778572713E0
3.158388923E0,-3.840000033E-1,1.970000029E0,6.477000237E0,6.780847158E0
3.163450385E0,-3.350000083E-1,1.980999947E0,6.515999794E0,6.818712423E0
3.168406308E0,-3.140000105E-1,2.003999949E0,6.544000149E0,6.851171414E0
3.173578693E0,-3.230000138E-1,2.071000099E0,6.670000076E0,6.991585760E0
3.178428923E0,-3.600000143E-1,2.079999924E0,6.717000008E0,7.040886932E0
3.183410616E0,-4.720000029E-1,2.043999910E0,6.810999870E0,7.126741111E0
3.189023693E0,-6.380000114E-1,1.953999996E0,6.987999916E0,7.284044400E0
3.193399077E0,-6.650000215E-1,1.952000022E0,7.065000057E0,7.359806718E0
3.200122000E0,-6.769999862E-1,2.013999939E0,7.390999794E0,7.690344771E0
3.203437077E0,-6.729999781E-1,2.043999910E0,7.526999950E0,7.828575404E0
3.208429385E0,-6.710000038E-1,2.114000082E0,7.830999851E0,8.139029182E0
3.213541923E0,-6.620000005E-1,2.164999962E0,8.156999588E0,8.465347666E0
3.218404616E0,-6.409999728E-1,2.154000044E0,8.430999756E0,8.725385610E0
3.223455616E0,-6.819999814E-1,2.114000082E0,8.614000320E0,8.895792367E0
3.228432462E0,-8.100000024E-1,2.104000092E0,8.800999641E0,9.085180850E0
3.233625462E0,-9.419999719E-1,2.121000051E0,9.055000305E0,9.347675416E0
3.238380923E0,-1.023000002E0,2.127000093E0,9.355999947E0,9.649113607E0
3.243425308E0,-1.088999987E0,2.102999926E0,9.671999931E0,9.957716221E0
3.248427077E0,-1.182000041E0,2.055000067E0,9.972000122E0,1.024992370E1
3.253391231E0,-1.274000049E0,2.000999928E0,1.026700020E1,1.053747455E1
3.258387231E0,-1.322000027E0,1.983000040E0,1.058800030E1,1.085291314E1
3.263408616E0,-1.322000027E0,2.013000011E0,1.092500019E1,1.118729111E1
3.268399616E0,-1.277999997E0,2.065000057E0,1.123799992E1,1.149739759E1
3.273535385E0,-1.220999956E0,2.128000021E0,1.150199986E1,1.176074937E1
3.278425846E0,-1.180999994E0,2.207000017E0,1.172599983E1,1.199019108E1
3.283407693E0,-1.146000028E0,2.312000036E0,1.189799976E1,1.217460712E1
3.288393923E0,-1.146000028E0,2.423000097E0,1.201399994E1,1.230936392E1
3.293399616E0,-1.200999975E0,2.507999897E0,1.208699989E1,1.240274288E1
3.298406154E0,-1.302999973E0,2.552999973E0,1.210400009E1,1.243874737E1
3.303446462E0,-1.442999959E0,2.540999889E0,1.205700016E1,1.240605426E1
3.308421462E0,-1.605999947E0,2.460999966E0,1.196599960E1,1.232156253E1
3.313403616E0,-1.751000047E0,2.332000017E0,1.187500000E1,1.222783097E1
3.318384462E0,-1.855000019E0,2.188999891E0,1.180900002E1,1.215258108E1
3.323428231E0,-1.919000030E0,2.055000067E0,1.177600002E1,1.210701296E1
3.328422385E0,-1.929000020E0,1.996000051E0,1.177799988E1,1.210067512E1
3.333412231E0,-1.901999950E0,1.909999967E0,1.180099964E1,1.210492859E1
3.338478693E0,-1.807999969E0,1.883999944E0,1.179500008E1,1.208057724E1
3.343402385E0,-1.652999997E0,1.927999973E0,1.171000004E1,1.198222407E1
3.351291154E0,-1.307999969E0,2.164999962E0,1.115400028E1,1.143721168E1
3.353406308E0,-1.307999969E0,2.164999962E0,1.115400028E1,1.143721168E1
3.358510462E0,-1.179000020E0,2.279000044E0,1.068999958E1,1.099363331E1
3.363421539E0,-1.039999962E0,2.367000103E0,1.021100044E1,1.053322455E1
3.368399693E0,-8.529999852E-1,2.457000017E0,9.810999870E0,1.014988554E1
3.373430308E0,-6.110000014E-1,2.553999901E0,9.527999878E0,9.883269609E0
3.378432308E0,-3.499999940E-1,2.660000086E0,9.395000458E0,9.770574909E0
3.383483846E0,-1.519999951E-1,2.782000065E0,9.409000397E0,9.812844482E0
3.388561846E0,-5.000000075E-2,2.898000002E0,9.552000046E0,9.982064360E0
3.393370154E0,-8.999999613E-3,2.983999968E0,9.803999901E0,1.024806083E1
3.399392385E0,-1.700000092E-2,3.025000095E0,1.014400005E1,1.058544527E1
3.403693000E0,-1.080000028E-1,2.983999968E0,1.061299992E1,1.102504816E1
3.408430231E0,-2.709999979E-1,2.818000078E0,1.121599960E1,1.156776610E1
3.413411539E0,-4.519999921E-1,2.507999897E0,1.189999962E1,1.216981341E1
3.419666693E0,-6.050000191E-1,2.068000078E0,1.255799961E1,1.274150712E1
3.423405385E0,-7.210000157E-1,1.531000018E0,1.307800007E1,1.318703484E1
3.428417154E0,-7.900000215E-1,9.789999723E-1,1.349400043E1,1.355251227E1
3.433448385E0,-7.810000181E-1,5.080000162E-1,1.383199978E1,1.386334169E1
3.438533000E0,-6.620000005E-1,1.439999938E-1,1.408399963E1,1.410028460E1
3.445586616E0,-3.050000072E-1,-2.319999933E-1,1.428299999E1,1.428813976E1
3.448845769E0,-1.689999998E-1,-3.079999983E-1,1.427099991E1,1.427532358E1
3.453470923E0,9.499999881E-2,-3.950000107E-1,1.407199955E1,1.407786281E1
3.458405923E0,3.420000076E-1,-3.709999919E-1,1.361600018E1,1.362534645E1
3.465616539E0,6.460000277E-1,-1.230000034E-1,1.264000034E1,1.265709500E1
3.468403693E0,7.030000091E-1,-1.400000043E-2,1.230599976E1,1.232607135E1
3.473414000E0,7.049999833E-1,1.620000005E-1,1.170800018E1,1.173032554E1
3.478428000E0,5.429999828E-1,1.949999928E-1,1.125100040E1,1.126578378E1
3.483600462E0,2.960000038E-1,1.350000054E-1,1.092599964E1,1.093084211E1
3.488420616E0,1.729999930E-1,1.019999981E-1,1.080500031E1,1.080686655E1
3.493464308E0,-2.899999917E-2,8.299999684E-2,1.063399982E1,1.063436328E1
3.498692077E0,-1.430000067E-1,1.539999992E-1,1.044600010E1,1.044811385E1
3.503459462E0,-1.400000006E-1,1.850000024E-1,1.037600040E1,1.037859381E1
3.508401616E0,-9.799999744E-2,2.349999994E-1,1.024199963E1,1.024516400E1
3.513444846E0,3.000000026E-3,2.450000048E-1,1.012399960E1,1.012696410E1
3.518431616E0,1.289999932E-1,2.280000001E-1,1.002099991E1,1.002442338E1
3.523418616E0,2.430000007E-1,2.099999934E-1,9.939000130E0,9.944187879E0
3.528423539E0,3.470000029E-1,1.770000011E-1,9.873999596E0,9.881680324E0
3.533576616E0,4.230000079E-1,9.799999744E-2,9.798000336E0,9.807616611E0
3.538446616E0,4.709999859E-1,-2.300000004E-2,9.727000237E0,9.738424081E0
3.543391769E0,5.210000277E-1,-1.679999977E-1,9.732999802E0,9.748381926E0
3.548390154E0,6.090000272E-1,-3.019999862E-1,9.859999657E0,9.883404184E0
3.553562693E0,7.599999905E-1,-3.720000088E-1,1.008899975E1,1.012442097E1
3.558428769E0,9.480000138E-1,-3.799999952E-1,1.039200020E1,1.044206743E1
3.563508231E0,1.128000021E0,-3.779999912E-1,1.071199989E1,1.077785738E1
3.568381154E0,1.276000023E0,-4.079999924E-1,1.101200008E1,1.109318646E1
3.573441923E0,1.383000016E0,-4.600000083E-1,1.127999973E1,1.137377172E1
3.578425154E0,1.465999961E0,-4.939999878E-1,1.148299980E1,1.158673709E1
3.583433616E0,1.539999962E0,-4.819999933E-1,1.162300014E1,1.173448151E1
3.588429462E0,1.613000035E0,-3.899999857E-1,1.169299984E1,1.181016995E1
3.593469769E0,1.692999959E0,-2.269999981E-1,1.166100025E1,1.178544461E1
3.598643000E0,1.743000031E0,-6.199999899E-2,1.149800014E1,1.162952709E1
3.603409308E0,1.679000020E0,6.199999899E-2,1.119600010E1,1.132136490E1
3.608390000E0,1.478999972E0,1.379999965E-1,1.079899979E1,1.090068261E1
3.613390000E0,8.040000200E-1,2.590000033E-1,9.607999802E0,9.645058695E0
3.618390000E0,8.040000200E-1,2.590000033E-1,9.607999802E0,9.645058695E0
3.622952923E0,8.040000200E-1,2.590000033E-1,9.607999802E0,9.645058695E0
3.623368539E0,7.009999752E-1,2.820000052E-1,9.376000404E0,9.406397214E0
3.628408000E0,5.370000005E-1,3.280000091E-1,8.949000359E0,8.971095832E0
3.633903308E0,4.280000031E-1,3.860000074E-1,8.593000412E0,8.612307245E0
3.640635616E0,3.689999878E-1,4.659999907E-1,8.314000130E0,8.335221361E0
3.643390308E0,3.409999907E-1,5.059999824E-1,8.194000244E0,8.216687713E0
3.648399385E0,2.800000012E-1,5.749999881E-1,8.017999649E0,8.043465880E0
3.653621846E0,2.070000023E-1,6.470000148E-1,7.848999977E0,7.878341111E0
3.658419154E0,1.790000051E-1,6.650000215E-1,7.797999859E0,7.828350262E0
3.664752539E0,8.299999684E-2,7.469999790E-1,7.620999813E0,7.657972063E0
3.668395846E0,4.100000113E-2,7.900000215E-1,7.572999954E0,7.614204446E0
3.673504462E0,-5.900000036E-2,8.610000014E-1,7.504000187E0,7.553464159E0
3.678611385E0,-1.490000039E-1,8.999999762E-1,7.447000027E0,7.502666883E0
3.683430616E0,-2.020000070E-1,9.179999828E-1,7.381000042E0,7.440610835E0
3.688413769E0,-2.290000021E-1,9.369999766E-1,7.334000111E0,7.397159426E0
3.693389154E0,-2.579999864E-1,9.539999962E-1,7.331999779E0,7.398303910E0
3.699617769E0,-3.109999895E-1,1.000000000E0,7.387000084E0,7.460863974E0
3.703400769E0,-3.339999914E-1,1.021000028E0,7.418000221E0,7.495380199E0
3.708426769E0,-3.889999986E-1,1.047999978E0,7.501999855E0,7.584828724E0
3.713449308E0,-4.580000043E-1,1.052999973E0,7.594999790E0,7.681314651E0
3.718614000E0,-5.429999828E-1,1.059000015E0,7.691999912E0,7.783520583E0
3.723434616E0,-6.330000162E-1,1.095000029E0,7.782999992E0,7.885100061E0
3.731001693E0,-7.599999905E-1,1.157999992E0,7.860000134E0,7.981113084E0
3.733385616E0,-8.050000072E-1,1.166000009E0,7.873000145E0,7.999482003E0
3.738426000E0,-9.190000296E-1,1.174999952E0,7.876999855E0,8.017001476E0
3.743415846E0,-1.034999967E0,1.182000041E0,7.883999825E0,8.039017494E0
3.748396616E0,-1.116000056E0,1.192000031E0,7.910999775E0,8.077761920E0
3.753457231E0,-1.166000009E0,1.213000059E0,7.946000099E0,8.122182141E0
3.758408693E0,-1.200000048E0,1.253999949E0,7.954999924E0,8.142145895E0
3.763446077E0,-1.225000024E0,1.309000015E0,7.939000130E0,8.138908352E0
3.768492077E0,-1.236999989E0,1.368000031E0,7.931000233E0,8.142625974E0
3.773387923E0,-1.230999947E0,1.447000027E0,7.932000160E0,8.156334746E0
3.778468616E0,-1.200999975E0,1.544000030E0,7.936999798E0,8.174490982E0
3.783410385E0,-1.148000002E0,1.641999960E0,7.948999882E0,8.197601295E0
3.788490000E0,-1.106999993E0,1.707999945E0,7.980000019E0,8.235478924E0
3.793603769E0,-1.100000024E0,1.723000050E0,8.050999641E0,8.306462812E0
3.798382462E0,-1.101999998E0,1.695000052E0,8.182000160E0,8.428081383E0
3.803431000E0,-1.090999961E0,1.654999971E0,8.385000229E0,8.616120627E0
3.809421154E0,-1.088000059E0,1.631000042E0,8.666000366E0,8.885013653E0
3.813741308E0,-1.113000035E0,1.605000019E0,9.012000084E0,9.221222243E0
3.819080693E0,-1.169000030E0,1.552000046E0,9.392000198E0,9.590877590E0
3.823402385E0,-1.215999961E0,1.513000011E0,9.583999634E0,9.778592635E0
3.828445539E0,-1.350999951E0,1.411000013E0,9.965000153E0,1.015467134E1
3.833502000E0,-1.503000021E0,1.276999950E0,1.034599972E1,1.053230498E1
3.838522616E0,-1.639999986E0,1.144000053E0,1.069099998E1,1.087638804E1
3.843426769E0,-1.769999981E0,1.047000051E0,1.099800014E1,1.118861547E1
3.849009385E0,-1.878999949E0,9.909999967E-1,1.129599953E1,1.149401266E1
3.853426000E0,-1.934999943E0,9.549999833E-1,1.159000015E1,1.178916254E1
3.858467462E0,-1.939000010E0,9.150000215E-1,1.186800003E1,1.206011488E1
3.863438077E0,-1.921000004E0,8.719999790E-1,1.210299969E1,1.228548845E1
3.868477770E0,-1.911000013E0,8.230000138E-1,1.231000042E1,1.248460494E1
3.873490462E0,-1.911000013E0,7.879999876E-1,1.251399994E1,1.268357440E1
3.878624462E0,-1.911000013E0,8.080000281E-1,1.271300030E1,1.288119411E1
3.883397385E0,-1.932000041E0,9.079999924E-1,1.285799980E1,1.303400349E1
3.888616462E0,-2.006999969E0,1.113000035E0,1.286800003E1,1.307104597E1
3.893351154E0,-2.167999983E0,1.376999974E0,1.264000034E1,1.289829297E1
3.898450770E0,-2.375999928E0,1.600000024E0,1.212500000E1,1.245877204E1
3.903428923E0,-2.559000015E0,1.699000001E0,1.142899990E1,1.183457311E1
3.908408385E0,-2.706000090E0,1.697999954E0,1.067599964E1,1.114372508E1
3.913592231E0,-2.868000031E0,1.680999994E0,9.954999924E0,1.049538988E1
3.918408077E0,-3.059000015E0,1.692000031E0,9.383000374E0,1.001304355E1
3.923425154E0,-3.253000021E0,1.738999963E0,9.036000252E0,9.759888860E0
3.928432000E0,-3.463000059E0,1.792999983E0,8.949000359E0,9.761753212E0
3.933472077E0,-3.729000092E0,1.782999992E0,9.184000015E0,1.007126541E1
3.938414923E0,-4.002999783E0,1.621999979E0,9.743000031E0,1.065743594E1
3.943458770E0,-4.185999870E0,1.269999981E0,1.059399986E1,1.146160233E1
3.948432385E0,-4.224999905E0,8.349999785E-1,1.170899963E1,1.247591766E1
3.953390385E0,-4.126999855E0,4.440000057E-1,1.300800037E1,1.365420586E1
3.958413308E0,-3.977999926E0,1.019999981E-1,1.436900043E1,1.490983102E1
3.963614462E0,-3.865999937E0,-2.450000048E-1,1.567399979E1,1.614559537E1
3.969945385E0,-3.815000057E0,-6.280000210E-1,1.682699966E1,1.726547211E1
3.973393846E0,-3.798000097E0,-8.289999962E-1,1.730400085E1,1.773528943E1
3.979159539E0,-3.611999989E0,-1.340000033E0,1.816500092E1,1.856904419E1
3.983398539E0,-3.486000061E0,-1.449000001E0,1.827400017E1,1.865987351E1
3.988402154E0,-3.171999931E0,-1.590999961E0,1.826000023E1,1.860162554E1
3.993423539E0,-2.845999956E0,-1.638000011E0,1.798299980E1,1.828034577E1
3.998448077E0,-2.588999987E0,-1.605999947E0,1.750200081E1,1.776519600E1
4.003428154E0,-2.418999910E0,-1.526000023E0,1.681900024E1,1.706045151E1
4.008375923E0,-2.322000027E0,-1.411000013E0,1.591100025E1,1.614133000E1
4.013709154E0,-2.322999954E0,-1.266000032E0,1.478299999E1,1.501786182E1
4.018387616E0,-2.434000015E0,-1.095999956E0,1.354800034E1,1.380847150E1
4.023425846E0,-2.637000084E0,-9.399999976E-1,1.238000011E1,1.269258730E1
4.029545462E0,-3.019999981E0,-7.609999776E-1,1.093099976E1,1.136601410E1
4.033702077E0,-3.128000021E0,-6.949999928E-1,1.053800011E1,1.101439310E1
4.038904385E0,-3.270999908E0,-5.379999876E-1,9.873999596E0,1.041560139E1
4.043406923E0,-3.338000059E0,-3.799999952E-1,9.378999710E0,9.962543849E0
4.048474693E0,-3.357000113E0,-2.500000000E-1,9.032999992E0,9.639867147E0
4.053499846E0,-3.329999924E0,-1.199999973E-1,8.772000313E0,9.383564833E0
4.058409693E0,-3.276999950E0,3.700000048E-2,8.539999962E0,9.147223460E0
4.064026308E0,-3.203000069E0,2.210000008E-1,8.347000122E0,8.943179607E0
4.068389231E0,-3.095000029E0,3.860000074E-1,8.208000183E0,8.780620034E0
4.073391154E0,-2.964999914E0,5.149999857E-1,8.121999741E0,8.661600849E0
4.078952231E0,-2.809000015E0,6.439999938E-1,8.086000443E0,8.584207607E0
4.083414616E0,-2.651999950E0,7.760000229E-1,8.085000038E0,8.544150361E0
4.088658693E0,-2.512000084E0,9.010000229E-1,8.102000237E0,8.530202418E0
4.093395923E0,-2.381000042E0,1.003999949E0,8.111000061E0,8.512666978E0
4.098397539E0,-2.234999895E0,1.075999975E0,8.121999741E0,8.492342449E0
4.103749616E0,-2.073999882E0,1.108000040E0,8.168999672E0,8.500687927E0
4.108404077E0,-1.907999992E0,1.106999993E0,8.274999619E0,8.563967051E0
4.113489077E0,-1.746999979E0,1.108000040E0,8.439000130E0,8.688866221E0
4.118401693E0,-1.601999998E0,1.126000047E0,8.623999596E0,8.843508869E0
4.123393462E0,-1.526000023E0,1.144000053E0,8.723999977E0,8.930038510E0
4.128688462E0,-1.320999980E0,1.174000025E0,9.031999588E0,9.203278414E0
4.133447770E0,-1.268000007E0,1.180999994E0,9.123000145E0,9.286103416E0
4.138477077E0,-1.192999959E0,1.179000020E0,9.227000237E0,9.378210027E0
4.145012462E0,-1.077999949E0,1.156000018E0,9.220000267E0,9.354508264E0
4.148429077E0,-1.027999997E0,1.149000049E0,9.199999809E0,9.328289318E0
4.153554154E0,-8.889999986E-1,1.156000018E0,9.102999687E0,9.219070471E0
4.158394000E0,-7.440000176E-1,1.197000027E0,8.937000275E0,9.047448204E0
4.163401077E0,-6.240000129E-1,1.253999949E0,8.730999947E0,8.842638292E0
4.168451770E0,-5.389999747E-1,1.292000055E0,8.527000427E0,8.641152782E0
4.173398308E0,-4.740000069E-1,1.309999943E0,8.368000031E0,8.483171598E0
4.178440462E0,-4.090000093E-1,1.320000052E0,8.213000298E0,8.328448537E0
4.186700000E0,-3.059999943E-1,1.343999982E0,7.921000004E0,8.040038122E0
4.188770308E0,-2.739999890E-1,1.350999951E0,7.814000130E0,7.934662872E0
4.195025770E0,-2.280000001E-1,1.348999977E0,7.500999928E0,7.624748183E0
4.198407154E0,-2.169999927E-1,1.345999956E0,7.399000168E0,7.523563541E0
4.203469616E0,-1.809999943E-1,1.345000029E0,7.197000027E0,7.323837482E0
4.211873462E0,-1.490000039E-1,1.378999949E0,6.934999943E0,7.072345160E0
4.218516231E0,-1.360000074E-1,1.425999999E0,6.735000134E0,6.885651661E0
4.223398616E0,-1.110000014E-1,1.442000031E0,6.650000095E0,6.805452693E0
4.228706462E0,-6.700000167E-2,1.462000012E0,6.609000206E0,6.769107530E0
4.233448000E0,-3.200000152E-2,1.488000035E0,6.592999935E0,6.758906439E0
4.238430693E0,-1.999999955E-2,1.508000016E0,6.589000225E0,6.759392577E0
4.243405539E0,-1.499999966E-2,1.527999997E0,6.594999790E0,6.769714265E0
4.248505000E0,-3.700000048E-2,1.542999983E0,6.651000023E0,6.827738956E0
4.253386616E0,-9.000000358E-2,1.541000009E0,6.767000198E0,6.940826515E0
4.258401923E0,-1.589999944E-1,1.524999976E0,6.901999950E0,7.070255246E0
4.263436308E0,-2.090000063E-1,1.509999990E0,7.032000065E0,7.195332229E0
4.268461846E0,-2.230000049E-1,1.506999969E0,7.172999859E0,7.332987446E0
4.273389693E0,-2.099999934E-1,1.513000011E0,7.350999832E0,7.508026876E0
4.278416539E0,-1.850000024E-1,1.526000023E0,7.557000160E0,7.711754177E0
4.283407539E0,-1.710000038E-1,1.537999988E0,7.659999847E0,7.814747765E0
4.288401308E0,-1.439999938E-1,1.529000044E0,7.848000050E0,7.996854501E0
4.293424616E0,-1.319999993E-1,1.488000035E0,8.039999962E0,8.177601573E0
4.298424693E0,-1.140000001E-1,1.429000020E0,8.229999542E0,8.353917017E0
4.303433077E0,-3.299999982E-2,1.404000044E0,8.420999527E0,8.537302745E0
4.308429154E0,9.799999744E-2,1.475999951E0,8.630999565E0,8.756844943E0
4.313429693E0,1.990000010E-1,1.625000000E0,8.869999886E0,9.019818400E0
4.318400000E0,2.349999994E-1,1.753000021E0,9.161999702E0,9.331156017E0
4.323394846E0,2.169999927E-1,1.810999990E0,9.498000145E0,9.671546759E0
4.328404154E0,1.650000066E-1,1.825999975E0,9.843999863E0,1.001328289E1
4.333457770E0,8.799999952E-2,1.842000008E0,1.016600037E1,1.033190551E1
4.338403693E0,1.099999994E-2,1.868000031E0,1.042500019E1,1.059104216E1
4.343538770E0,-4.899999872E-2,1.883000016E0,1.064299965E1,1.080840097E1
4.348585154E0,-9.499999881E-2,1.853999972E0,1.086999989E1,1.102738584E1
4.353432231E0,-1.180000007E-1,1.800999999E0,1.110400009E1,1.124972635E1
4.358426539E0,-1.319999993E-1,1.758999944E0,1.133899975E1,1.147538322E1
4.363406923E0,-1.679999977E-1,1.736999989E0,1.157299995E1,1.170383360E1
4.368413923E0,-2.339999974E-1,1.746000051E0,1.177200031E1,1.190307790E1
4.373470231E0,-3.170000017E-1,1.792000055E0,1.190699959E1,1.204526431E1
4.378396154E0,-4.110000134E-1,1.850999951E0,1.200300026E1,1.215183678E1
4.383393000E0,-5.509999990E-1,1.907999992E0,1.207699966E1,1.223919874E1
4.388432770E0,-7.760000229E-1,1.932000041E0,1.214000034E1,1.231724030E1
4.393550154E0,-1.064000010E0,1.901999950E0,1.219699955E1,1.239017747E1
4.398928000E0,-1.366999984E0,1.828999996E0,1.226700020E1,1.247770908E1
4.403399077E0,-1.631999969E0,1.750000000E0,1.231900024E1,1.254925061E1
4.408410693E0,-1.843000054E0,1.679000020E0,1.231299973E1,1.256286800E1
4.413421154E0,-1.965999961E0,1.616000056E0,1.225199986E1,1.251351719E1
4.418396154E0,-1.980999947E0,1.570999980E0,1.212899971E1,1.238971492E1
4.423399231E0,-1.863000035E0,1.567000031E0,1.191699982E1,1.216310581E1
4.428413000E0,-1.580000043E0,1.644000053E0,1.161699963E1,1.183865772E1
4.433461308E0,-1.172999978E0,1.845000029E0,1.122999954E1,1.144084104E1
4.438392616E0,-9.660000205E-1,1.980000019E0,1.100800037E1,1.122629183E1
4.443621462E0,-4.399999976E-1,2.401999950E0,1.032699966E1,1.061179183E1
4.451598770E0,-6.700000167E-2,2.736000061E0,9.829999924E0,1.020387592E1
4.454097923E0,3.099999949E-2,2.826999903E0,9.743000031E0,1.014489719E1
4.458398539E0,1.059999987E-1,2.901000023E0,9.704000473E0,1.012890233E1
4.464166154E0,1.250000000E-1,3.002000093E0,9.901000023E0,1.034685609E1
4.468830385E0,7.599999756E-2,2.989000082E0,1.005000019E1,1.048534221E1
4.473528846E0,-3.500000015E-2,2.934999943E0,1.044499969E1,1.084958378E1
4.478395846E0,-1.689999998E-1,2.885999918E0,1.094600010E1,1.132132831E1
4.484059616E0,-3.490000069E-1,2.822000027E0,1.154500008E1,1.189001732E1
4.489059616E0,-7.940000296E-1,2.382999897E0,1.295699978E1,1.319821836E1
4.493976923E0,-7.940000296E-1,2.382999897E0,1.295699978E1,1.319821836E1
4.498395231E0,-9.729999900E-1,1.973999977E0,1.371500015E1,1.389045118E1
4.505215923E0,-1.101999998E0,1.304000020E0,1.475199986E1,1.485046530E1
4.511834385E0,-1.116000056E0,8.849999905E-1,1.524899960E1,1.531537364E1
4.513487000E0,-1.120000005E0,6.880000234E-1,1.542099953E1,1.547691734E1
4.518403846E0,-1.151999950E0,3.440000117E-1,1.562500000E1,1.567118582E1
4.526740846E0,-1.233000040E0,2.099999972E-2,1.564999962E1,1.569851006E1
4.528400846E0,-1.245000005E0,-3.999999911E-2,1.559599972E1,1.564566497E1
4.533997846E0,-1.241000056E0,-1.019999981E-1,1.535000038E1,1.540042197E1
4.538403077E0,-1.200000048E0,-8.699999750E-2,1.488199997E1,1.493055566E1
4.545055462E0,-1.174000025E0,-1.700000092E-2,1.424400043E1,1.429230959E1
4.548388462E0,-1.217000008E0,7.900000364E-2,1.350599957E1,1.356094961E1
4.553509462E0,-1.317999959E0,1.589999944E-1,1.266300011E1,1.273239870E1
4.558472616E0,-1.429000020E0,1.749999970E-1,1.175399971E1,1.184184003E1
4.563432231E0,-1.470999956E0,1.729999930E-1,1.089099979E1,1.099125318E1
4.568406000E0,-1.375000000E0,2.750000060E-1,1.017300034E1,1.026918623E1
4.573562231E0,-1.169000030E0,5.070000291E-1,9.637999535E0,9.721864283E0
4.578440462E0,-9.819999933E-1,7.250000238E-1,9.286999702E0,9.366873144E0
4.583407923E0,-8.840000033E-1,8.220000267E-1,9.116000175E0,9.195574982E0
4.588439770E0,-8.360000253E-1,8.220000267E-1,9.109000206E0,9.184142031E0
4.595027308E0,-7.680000067E-1,8.040000200E-1,9.206000328E0,9.272900414E0
4.598393923E0,-7.200000286E-1,7.969999909E-1,9.272999763E0,9.334995107E0
4.603388846E0,-6.240000129E-1,7.779999971E-1,9.451000214E0,9.503476472E0
4.610804770E0,-4.889999926E-1,7.720000148E-1,9.767000198E0,9.809658398E0
4.613878462E0,-4.099999964E-1,7.250000238E-1,9.980999947E0,1.001569194E1
4.618463846E0,-3.750000000E-1,6.850000024E-1,1.006999969E1,1.010023484E1
4.623458000E0,-2.759999931E-1,5.910000205E-1,1.020400047E1,1.022482678E1
4.628420462E0,-1.220000014E-1,5.289999843E-1,1.029599953E1,1.031030219E1
4.633443770E0,6.400000304E-2,5.059999824E-1,1.036699963E1,1.037953820E1
4.638423385E0,2.370000035E-1,4.979999959E-1,1.044900036E1,1.046354536E1
4.643789462E0,3.560000062E-1,4.830000103E-1,1.057999992E1,1.059700068E1
4.648411616E0,4.329999983E-1,4.460000098E-1,1.077499962E1,1.079291535E1
4.653389077E0,4.869999886E-1,4.160000086E-1,1.101900005E1,1.103759880E1
4.659142231E0,5.320000052E-1,4.099999964E-1,1.124699974E1,1.126703720E1
4.665352539E0,5.649999976E-1,4.129999876E-1,1.144299984E1,1.146438133E1
4.668569231E0,5.590000153E-1,4.050000012E-1,1.147700024E1,1.149774067E1
4.673419539E0,5.350000262E-1,3.889999986E-1,1.151500034E1,1.153398365E1
4.678500539E0,4.799999893E-1,3.680000007E-1,1.152200031E1,1.153786441E1
4.683484154E0,3.540000021E-1,3.470000029E-1,1.146800041E1,1.147870892E1
4.688503154E0,1.749999970E-1,3.370000124E-1,1.135000038E1,1.135635076E1
4.693403385E0,3.000000026E-3,3.449999988E-1,1.115999985E1,1.116533164E1
4.698444539E0,-1.239999980E-1,3.479999900E-1,1.087899971E1,1.088527054E1
4.703433539E0,-2.129999995E-1,3.440000117E-1,1.052400017E1,1.053177499E1
4.708782154E0,-2.840000093E-1,3.549999893E-1,1.010499954E1,1.011522104E1
4.713730231E0,-3.319999874E-1,3.910000026E-1,9.625000000E0,9.638658101E0
4.718730231E0,-3.589999974E-1,4.709999859E-1,8.869999886E0,8.889748025E0
4.722836923E0,-3.589999974E-1,4.709999859E-1,8.869999886E0,8.889748025E0
4.723390385E0,-3.709999919E-1,5.019999743E-1,8.630000114E0,8.652545691E0
4.728686846E0,-4.020000100E-1,5.609999895E-1,8.199000359E0,8.227996833E0
4.733397308E0,-4.539999962E-1,6.150000095E-1,7.809999943E0,7.847320569E0
4.738408231E0,-5.239999890E-1,6.570000052E-1,7.442999840E0,7.490291824E0
4.744517231E0,-5.989999771E-1,6.840000153E-1,7.120999813E0,7.178808768E0
4.748766077E0,-6.650000215E-1,7.030000091E-1,6.864999771E0,6.932867798E0
4.753403308E0,-7.289999723E-1,7.239999771E-1,6.673999786E0,6.752620978E0
4.758411385E0,-7.599999905E-1,7.329999804E-1,6.592999935E0,6.677015583E0
4.763753154E0,-8.690000176E-1,7.689999938E-1,6.394999981E0,6.499426650E0
4.768535385E0,-9.129999876E-1,7.810000181E-1,6.346000195E0,6.458734278E0
4.773586923E0,-1.019000053E0,8.019999862E-1,6.282999992E0,6.415423134E0
4.779110231E0,-1.238999963E0,7.990000248E-1,6.291999817E0,6.462413144E0
4.785082846E0,-1.371000051E0,7.749999762E-1,6.375000000E0,6.566649915E0
4.788434077E0,-1.422000051E0,7.530000210E-1,6.422999859E0,6.621481735E0
4.793462693E0,-1.503000021E0,7.020000219E-1,6.546999931E0,6.753889338E0
4.798427462E0,-1.534000039E0,6.830000281E-1,6.684000015E0,6.891698003E0
4.803426693E0,-1.523000002E0,6.840000153E-1,6.829999924E0,7.031094082E0
4.808595770E0,-1.488999963E0,6.719999909E-1,6.975999832E0,7.164724596E0
4.813581693E0,-1.424999952E0,6.499999762E-1,7.105000019E0,7.275585894E0
4.818438000E0,-1.358999968E0,6.499999762E-1,7.205999851E0,7.361780677E0
4.825475231E0,-1.233000040E0,7.020000219E-1,7.381000042E0,7.516132965E0
4.829642000E0,-1.156999946E0,7.469999790E-1,7.543000221E0,7.667692624E0
4.834973077E0,-1.174000025E0,7.990000248E-1,7.729000092E0,7.858378937E0
4.840514077E0,-1.251000047E0,8.529999852E-1,7.916999817E0,8.060489823E0
4.843426846E0,-1.296000004E0,8.759999871E-1,8.001999855E0,8.153465133E0
4.848909308E0,-1.379999995E0,9.179999828E-1,8.149999619E0,8.316827384E0
4.853966462E0,-1.447999954E0,9.599999785E-1,8.265999794E0,8.446600288E0
4.858435693E0,-1.496999979E0,9.940000176E-1,8.342000008E0,8.533346887E0
4.863414693E0,-1.513000011E0,1.034000039E0,8.347999573E0,8.546778456E0
4.868414693E0,-1.447999954E0,1.190999985E0,8.116000175E0,8.329744515E0
4.872763231E0,-1.447999954E0,1.190999985E0,8.116000175E0,8.329744515E0
4.873528231E0,-1.447999954E0,1.190999985E0,8.116000175E0,8.329744515E0
4.878393308E0,-1.368999958E0,1.289000034E0,7.992000103E0,8.210222142E0
4.883386385E0,-1.317999959E0,1.370000005E0,7.948999882E0,8.173164811E0
4.890595385E0,-1.350999951E0,1.476999998E0,8.001000404E0,8.247589789E0
4.893540846E0,-1.386000037E0,1.511000037E0,8.071000099E0,8.327374125E0
4.898395923E0,-1.468000054E0,1.570999980E0,8.274999619E0,8.549776827E0
4.903398308E0,-1.557999969E0,1.603999972E0,8.546999931E0,8.834669640E0
4.908410693E0,-1.628999949E0,1.606999993E0,8.847999573E0,9.139102048E0
4.913499462E0,-1.677999973E0,1.578999996E0,9.142999649E0,9.428858228E0
4.918454308E0,-1.692000031E0,1.524999976E0,9.449000359E0,9.719675756E0
4.923442077E0,-1.687000036E0,1.498000026E0,9.609999657E0,9.871274821E0
4.928847462E0,-1.649999976E0,1.409999967E0,1.010000038E1,1.033056666E1
4.933426385E0,-1.639999986E0,1.383000016E0,1.023600006E1,1.045839310E1
4.941094000E0,-1.600000024E0,1.343000054E0,1.061800003E1,1.082153288E1
4.943527231E0,-1.582999945E0,1.345000029E0,1.075599957E1,1.095474512E1
4.948426539E0,-1.531999946E0,1.378999949E0,1.103999996E1,1.123077307E1
4.953566616E0,-1.424999952E0,1.465000033E0,1.128499985E1,1.146856885E1
4.958392308E0,-1.279000044E0,1.608000040E0,1.145100021E1,1.163386914E1
4.965755154E0,-1.101999998E0,1.889000058E0,1.149699974E1,1.170315036E1
4.971612154E0,-1.065999985E0,2.068000078E0,1.135200024E1,1.158796314E1
4.973660231E0,-1.069000006E0,2.148000002E0,1.121300030E1,1.146682348E1
4.978625693E0,-1.075000048E0,2.289999962E0,1.080599976E1,1.109816902E1
4.983422462E0,-1.062999964E0,2.423000097E0,1.027600002E1,1.061117688E1
4.988448077E0,-1.044999957E0,2.572999954E0,9.699999809E0,1.008971506E1
4.993862077E0,-1.072000027E0,2.744999886E0,9.159000397E0,9.621408249E0
4.998435462E0,-1.149000049E0,2.917999983E0,8.687999725E0,9.236680369E0
5.003538846E0,-1.281999946E0,3.078999996E0,8.315999985E0,8.959889541E0
5.008433846E0,-1.496999979E0,3.203000069E0,8.133999825E0,8.869169720E0
5.013445846E0,-1.830000043E0,3.233999968E0,8.253000259E0,9.050948526E0
5.018425077E0,-2.275000095E0,3.082000017E0,8.717000008E0,9.521577531E0
5.023440077E0,-2.747999907E0,2.710999966E0,9.576999664E0,1.032569353E1
5.028464000E0,-3.088000059E0,2.177999973E0,1.082900047E1,1.146938008E1
5.033400385E0,-3.164000034E0,1.575000048E0,1.236999989E1,1.286500752E1
5.038416231E0,-3.039000034E0,9.660000205E-1,1.409799957E1,1.445414367E1
5.044158770E0,-2.832999945E0,4.009999931E-1,1.585999966E1,1.611602553E1
5.048442000E0,-2.571000099E0,-6.700000167E-2,1.750499916E1,1.769292305E1
5.053537077E0,-2.255000114E0,-4.530000091E-1,1.894799995E1,1.908708822E1
5.058420616E0,-1.884999990E0,-7.749999762E-1,2.009799957E1,2.020107514E1
5.063420616E0,-1.254999995E0,-1.103000045E0,2.110199928E1,2.116804213E1
5.067680693E0,-1.254999995E0,-1.103000045E0,2.110199928E1,2.116804213E1
5.068621154E0,-1.032999992E0,-1.167000055E0,2.121800041E1,2.127516203E1
5.073454308E0,-6.159999967E-1,-1.207000017E0,2.112899971E1,2.117240973E1
5.078540385E0,-2.759999931E-1,-1.144999981E0,2.063199997E1,2.066559033E1
5.083439462E0,-1.539999992E-1,-1.072999954E0,2.024699974E1,2.027599673E1
5.089912846E0,-7.400000095E-2,-7.480000257E-1,1.860300064E1,1.861817963E1
5.093477462E0,-1.589999944E-1,-6.159999967E-1,1.789999962E1,1.791130155E1
5.098521616E0,-5.019999743E-1,-3.549999893E-1,1.635099983E1,1.636255556E1
5.103420693E0,-1.004999995E0,-1.129999980E-1,1.478299999E1,1.481755320E1
5.108581846E0,-1.523000002E0,1.129999980E-1,1.335599995E1,1.344302914E1
5.113413846E0,-1.998000026E0,3.249999881E-1,1.211200047E1,1.227999122E1
5.118397770E0,-2.424000025E0,5.109999776E-1,1.101900005E1,1.129403645E1
5.123441462E0,-2.769999981E0,6.899999976E-1,1.000899982E1,1.040812555E1
5.128428462E0,-3.035000086E0,8.790000081E-1,9.067999840E0,9.602733342E0
5.133417846E0,-3.234999895E0,1.092000008E0,8.208000183E0,8.889823133E0
5.138407923E0,-3.371000051E0,1.324000001E0,7.439000130E0,8.273774246E0
5.143426770E0,-3.428999901E0,1.557000041E0,6.793000221E0,7.767054876E0
5.148431000E0,-3.420000076E0,1.781000018E0,6.289000034E0,7.376983328E0
5.154947462E0,-3.397000074E0,2.059000015E0,5.729000092E0,6.971408223E0
5.158435693E0,-3.398000002E0,2.124000072E0,5.578000069E0,6.868177712E0
5.163637308E0,-3.381000042E0,2.211999893E0,5.317999840E0,6.678714480E0
5.168426000E0,-3.322000027E0,2.229000092E0,5.106999874E0,6.487339462E0
5.173416923E0,-3.250999928E0,2.190000057E0,4.992000103E0,6.347059619E0
5.178391616E0,-3.173000097E0,2.138999939E0,5.013000011E0,6.306617118E0
5.183407539E0,-3.016999960E0,2.098999977E0,5.135000229E0,6.314769751E0
5.189375770E0,-2.720999956E0,2.072000027E0,5.328000069E0,6.331240763E0
5.193397539E0,-2.286999941E0,2.040999889E0,5.593999863E0,6.378783876E0
5.198390308E0,-1.787999988E0,1.993999958E0,5.918000221E0,6.495822227E0
5.203424077E0,-1.340000033E0,1.935999990E0,6.297999859E0,6.723726517E0
5.208415616E0,-1.046000004E0,1.868000031E0,6.709000111E0,7.042316565E0
5.213388923E0,-8.939999938E-1,1.781000018E0,7.144999981E0,7.417696528E0
5.218429847E0,-8.140000105E-1,1.684999943E0,7.592000008E0,7.819225341E0
5.223700231E0,-7.639999986E-1,1.606999993E0,8.024999619E0,8.219900477E0
5.228390077E0,-7.289999723E-1,1.552999973E0,8.414999962E0,8.588100735E0
5.233720231E0,-7.059999704E-1,1.516000032E0,8.729999542E0,8.888733547E0
5.238554308E0,-6.949999928E-1,1.503999949E0,8.935999870E0,9.088296569E0
5.243686231E0,-7.049999833E-1,1.503000021E0,9.045000076E0,9.196089409E0
5.248414539E0,-7.260000110E-1,1.501999974E0,9.074999809E0,9.227063535E0
5.253401770E0,-7.810000181E-1,1.491000056E0,9.055999756E0,9.211089717E0
5.258389770E0,-8.280000091E-1,1.463999987E0,8.940999985E0,9.097821756E0
5.263419077E0,-8.379999995E-1,1.425999999E0,8.772000313E0,8.926573222E0
5.268521462E0,-8.019999862E-1,1.412999988E0,8.564999580E0,8.717740003E0
5.273376539E0,-7.500000000E-1,1.429000020E0,8.324000359E0,8.479004837E0
5.278399616E0,-7.049999833E-1,1.457999945E0,8.071999550E0,8.232858893E0
5.283402000E0,-6.420000196E-1,1.467000008E0,7.830999851E0,7.993047711E0
5.289028693E0,-5.600000024E-1,1.463999987E0,7.623000145E0,7.782482070E0
5.293412000E0,-4.580000043E-1,1.455000043E0,7.433000088E0,7.587903494E0
5.298469385E0,-3.230000138E-1,1.450000048E0,7.264999866E0,7.415325496E0
5.303405308E0,-1.480000019E-1,1.478000045E0,7.168000221E0,7.320287925E0
5.308391000E0,3.299999982E-2,1.534999967E0,7.144999981E0,7.308100890E0
5.313473693E0,1.720000058E-1,1.603999972E0,7.181000233E0,7.359970398E0
5.318547462E0,2.370000035E-1,1.680999994E0,7.295000076E0,7.489923637E0
5.323595231E0,2.290000021E-1,1.759999990E0,7.471000195E0,7.678924721E0
5.328394000E0,1.800000072E-1,1.804999948E0,7.639999866E0,7.852389622E0
5.333534539E0,1.120000035E-1,1.828999996E0,7.756000042E0,7.969524555E0
5.340093077E0,5.299999937E-2,1.878000021E0,7.824999809E0,8.047379393E0
5.343403539E0,2.800000086E-2,1.957000017E0,7.855000019E0,8.095162652E0
5.348404693E0,4.899999872E-2,2.051000118E0,7.835000038E0,8.099149837E0
5.353455693E0,8.100000024E-2,2.134999990E0,7.770999908E0,8.059356397E0
5.358405385E0,1.010000035E-1,2.200999975E0,7.697999954E0,8.007109665E0
5.363404616E0,9.000000358E-2,2.266999960E0,7.605999947E0,7.937167253E0
5.368404616E0,-5.600000173E-2,2.394999981E0,7.515999794E0,7.888562215E0
5.373466693E0,-5.600000173E-2,2.394999981E0,7.515999794E0,7.888562215E0
5.378416923E0,-1.720000058E-1,2.444999933E0,7.576000214E0,7.962624436E0
5.383437308E0,-2.860000134E-1,2.474999905E0,7.697000027E0,8.090193443E0
5.388422231E0,-3.750000000E-1,2.471999884E0,7.883999825E0,8.270964977E0
5.394264000E0,-4.359999895E-1,2.467000008E0,8.107000351E0,8.485260144E0
5.398408923E0,-4.589999914E-1,2.479000092E0,8.220999718E0,8.598892882E0
5.405865308E0,-4.740000069E-1,2.562999964E0,8.569000244E0,8.956640554E0
5.408415539E0,-4.629999995E-1,2.596999884E0,8.675999641E0,9.068172207E0
5.413424923E0,-4.420000017E-1,2.664000034E0,8.878000259E0,9.279609302E0
5.418959770E0,-4.699999988E-1,2.717999935E0,9.170999527E0,9.576829119E0
5.423413616E0,-5.030000210E-1,2.723000050E0,9.274000168E0,9.678575174E0
5.428403000E0,-5.609999895E-1,2.719000101E0,9.486000061E0,9.883920259E0
5.433438077E0,-5.720000267E-1,2.720999956E0,9.694999695E0,1.008583382E1
5.438438462E0,-5.690000057E-1,2.707000017E0,9.930000305E0,1.030808014E1
5.443447154E0,-5.979999900E-1,2.664000034E0,1.023299980E1,1.059097659E1
5.448400539E0,-6.779999733E-1,2.595999956E0,1.063399982E1,1.096726274E1
5.453508000E0,-7.990000248E-1,2.493000031E0,1.113399982E1,1.143763097E1
5.458424231E0,-9.330000281E-1,2.346999884E0,1.169600010E1,1.196558882E1
5.463420385E0,-1.047000051E0,2.187000036E0,1.224899960E1,1.248667968E1
5.468426000E0,-1.106999993E0,2.051000118E0,1.273499966E1,1.294651562E1
5.473381231E0,-1.101999998E0,1.965999961E0,1.313300037E1,1.332498625E1
5.478393308E0,-1.065000057E0,1.939000010E0,1.347299957E1,1.365341216E1
5.484029847E0,-1.041000009E0,1.940000057E0,1.372599983E1,1.390145146E1
5.488681231E0,-1.021999955E0,1.945000052E0,1.382299995E1,1.399652946E1
5.493431693E0,-9.980000257E-1,1.973999977E0,1.375500011E1,1.393171591E1
5.498436308E0,-9.840000272E-1,2.039000034E0,1.353999996E1,1.372797786E1
5.503436308E0,-1.069000006E0,2.210999966E0,1.273600006E1,1.297061985E1
5.509360154E0,-1.069000006E0,2.210999966E0,1.273600006E1,1.297061985E1
5.513563000E0,-1.154000044E0,2.280999899E0,1.215999985E1,1.242579064E1
5.518406770E0,-1.205999970E0,2.334000111E0,1.156000042E1,1.185477128E1
5.524027000E0,-1.197000027E0,2.361000061E0,1.107100010E1,1.138306521E1
5.528454231E0,-1.121000051E0,2.375999928E0,1.083699989E1,1.115090057E1
5.533390308E0,-9.869999886E-1,2.413000107E0,1.089700031E1,1.120452383E1
5.538397770E0,-8.759999871E-1,2.484999895E0,1.119999981E1,1.150576361E1
5.543396770E0,-8.489999771E-1,2.522000074E0,1.168200016E1,1.198125257E1
5.548391847E0,-9.539999962E-1,2.447999954E0,1.228299999E1,1.256084824E1
5.553435308E0,-1.054999948E0,2.342000008E0,1.262500000E1,1.288365685E1
5.558462154E0,-1.284999967E0,2.000999928E0,1.338799953E1,1.359756438E1
5.563395462E0,-1.458999991E0,1.575000048E0,1.424199963E1,1.440291149E1
5.568420923E0,-1.562999964E0,1.156999946E0,1.509799957E1,1.522272015E1
5.573402308E0,-1.654000044E0,7.250000238E-1,1.576200008E1,1.586511859E1
5.578391923E0,-1.720999956E0,2.750000060E-1,1.607099915E1,1.616522438E1
5.583520077E0,-1.672999978E0,-1.299999952E-1,1.609300041E1,1.618025003E1
5.589738847E0,-1.194000006E0,-5.590000153E-1,1.594499969E1,1.599941037E1
5.593391770E0,-9.539999962E-1,-6.460000277E-1,1.587399960E1,1.591575619E1
5.598400154E0,-4.620000124E-1,-7.670000196E-1,1.571399975E1,1.573948923E1
5.603441770E0,4.000000190E-3,-8.299999833E-1,1.548799992E1,1.551022429E1
5.608385308E0,4.289999902E-1,-8.280000091E-1,1.511299992E1,1.514174334E1
5.613396847E0,7.699999809E-1,-7.699999809E-1,1.456900024E1,1.460963956E1
5.618520616E0,9.570000172E-1,-6.570000052E-1,1.396700001E1,1.401515563E1
5.623423847E0,9.319999814E-1,-5.239999890E-1,1.344200039E1,1.348445677E1
5.628414000E0,6.990000010E-1,-4.329999983E-1,1.300899982E1,1.303495940E1
5.633527231E0,3.680000007E-1,-3.779999912E-1,1.260799980E1,1.261903194E1
5.639031539E0,7.599999756E-2,-3.319999874E-1,1.218799973E1,1.219275758E1
5.643394616E0,-1.000000015E-1,-2.689999938E-1,1.175300026E1,1.175650357E1
5.648422385E0,-1.589999944E-1,-1.560000032E-1,1.129500008E1,1.129719628E1
5.653854077E0,-1.550000012E-1,9.999999776E-3,1.078600025E1,1.078711854E1
5.658398616E0,-1.410000026E-1,1.749999970E-1,1.025500011E1,1.025746232E1
5.663418231E0,-1.280000061E-1,2.870000005E-1,9.755000114E0,9.760060463E0
5.670431462E0,-1.280000061E-1,3.740000129E-1,9.121999741E0,9.130560732E0
5.673418385E0,-1.340000033E-1,3.980000019E-1,8.953000069E0,8.962843870E0
5.678433308E0,-1.589999944E-1,4.569999874E-1,8.666000366E0,8.679498392E0
5.683368308E0,-1.949999928E-1,5.149999857E-1,8.430999756E0,8.448964840E0
5.688415077E0,-2.639999986E-1,5.379999876E-1,8.234999657E0,8.256776570E0
5.693462539E0,-3.619999886E-1,5.059999824E-1,8.046999931E0,8.071015294E0
5.698423385E0,-4.510000050E-1,4.510000050E-1,7.872000217E0,7.897796492E0
5.704837539E0,-4.959999919E-1,4.189999998E-1,7.761000156E0,7.788112764E0
5.708425693E0,-4.990000129E-1,4.040000141E-1,7.731999874E0,7.758610641E0
5.713415308E0,-4.839999974E-1,3.910000026E-1,7.747000217E0,7.771946305E0
5.719963770E0,-4.029999971E-1,3.499999940E-1,7.872000217E0,7.890075818E0
5.723433539E0,-3.569999933E-1,3.359999955E-1,7.927999973E0,7.943143494E0
5.728513462E0,-2.349999994E-1,3.199999928E-1,8.100999832E0,8.110722734E0
5.733450616E0,-1.019999981E-1,3.319999874E-1,8.350999832E0,8.358219080E0
5.739235077E0,9.000000358E-2,3.319999874E-1,8.774999619E0,8.781739139E0
5.743398693E0,1.490000039E-1,3.350000083E-1,8.888999939E0,8.896558094E0
5.748391077E0,2.500000000E-1,3.709999919E-1,9.027000427E0,9.038079315E0
5.754574462E0,2.779999971E-1,4.329999983E-1,9.015999794E0,9.030671364E0
5.761373847E0,2.169999927E-1,4.469999969E-1,8.887000084E0,8.900880208E0
5.763412308E0,1.899999976E-1,4.440000057E-1,8.798999786E0,8.812243372E0
5.769143000E0,1.500000060E-1,4.539999962E-1,8.564000130E0,8.577337245E0
5.774075616E0,1.469999999E-1,5.299999714E-1,8.296999931E0,8.315209969E0
5.778447308E0,1.829999983E-1,6.750000119E-1,8.053999901E0,8.084307541E0
5.785687000E0,2.049999982E-1,9.210000038E-1,7.718999863E0,7.776453233E0
5.788434539E0,1.749999970E-1,9.800000191E-1,7.598999977E0,7.663930172E0
5.793591923E0,7.699999958E-2,1.049000025E0,7.350999832E0,7.425868877E0
5.798439616E0,-4.600000009E-2,1.072000027E0,7.089000225E0,7.169743667E0
5.803452539E0,-1.689999998E-1,1.092000008E0,6.857999802E0,6.946451346E0
5.808421693E0,-2.460000068E-1,1.156999946E0,6.710999966E0,6.814446817E0
5.813383000E0,-2.349999994E-1,1.268000007E0,6.629000187E0,6.753272725E0
5.818588000E0,-2.109999955E-1,1.398000002E0,6.574999809E0,6.725291629E0
5.823652000E0,-2.569999993E-1,1.496999979E0,6.538000107E0,6.712116159E0
5.828429231E0,-3.740000129E-1,1.531000018E0,6.541999817E0,6.729160324E0
5.836098923E0,-5.799999833E-1,1.513000011E0,6.635000229E0,6.829992464E0
5.838685847E0,-6.299999952E-1,1.516000032E0,6.679999828E0,6.878775603E0
5.843910923E0,-7.049999833E-1,1.555999994E0,6.762000084E0,6.974439482E0
5.848578462E0,-7.659999728E-1,1.610999942E0,6.866000175E0,7.093943556E0
5.855219539E0,-8.330000043E-1,1.664000034E0,7.012000084E0,7.254717796E0
5.858388693E0,-9.120000005E-1,1.697000027E0,7.149000168E0,7.404036500E0
5.864047077E0,-9.810000062E-1,1.703999996E0,7.238999844E0,7.501272941E0
5.869037077E0,-1.019000053E0,1.692000031E0,7.290999889E0,7.553800673E0
5.873485847E0,-1.036999941E0,1.672000051E0,7.327000141E0,7.586559439E0
5.878396539E0,-1.036999941E0,1.664999962E0,7.357999802E0,7.614969129E0
5.885996539E0,-9.580000043E-1,1.636999965E0,7.541999817E0,7.776843455E0
5.888419231E0,-9.139999747E-1,1.633999944E0,7.635000229E0,7.861207303E0
5.893535308E0,-8.389999866E-1,1.631999969E0,7.841000080E0,8.052864530E0
5.898373385E0,-7.699999809E-1,1.629999995E0,8.097999573E0,8.296227880E0
5.903451770E0,-7.020000219E-1,1.628999949E0,8.395999908E0,8.581332025E0
5.908492385E0,-6.399999857E-1,1.631000042E0,8.675000191E0,8.850163243E0
5.913505616E0,-6.019999981E-1,1.639999986E0,8.923000336E0,9.092411063E0
5.918515770E0,-6.110000014E-1,1.649000049E0,9.177000046E0,9.343974101E0
5.923516539E0,-6.600000262E-1,1.638000011E0,9.425999641E0,9.590000694E0
5.928516539E0,-8.050000072E-1,1.634999990E0,9.802000046E0,9.969977677E0
5.933497770E0,-8.050000072E-1,1.634999990E0,9.802000046E0,9.969977677E0
5.938803616E0,-8.579999804E-1,1.672999978E0,9.918999672E0,1.009562516E1
5.943399231E0,-8.719999790E-1,1.740000010E0,9.993000031E0,1.018076783E1
5.948409847E0,-8.569999933E-1,1.789000034E0,1.003499985E1,1.022918335E1
5.954352847E0,-8.280000091E-1,1.787999988E0,1.005900002E1,1.025017118E1
5.958393231E0,-8.240000010E-1,1.774000049E0,1.008199978E1,1.026999375E1
5.963385539E0,-8.629999757E-1,1.764999986E0,1.013899994E1,1.032759961E1
5.968423539E0,-9.319999814E-1,1.756000042E0,1.026599979E1,1.045671611E1
5.976559154E0,-1.067000031E0,1.736999989E0,1.061499977E1,1.080897211E1
5.979033154E0,-1.108999968E0,1.720000029E0,1.076700020E1,1.095977072E1
5.983402462E0,-1.187999964E0,1.684999943E0,1.110099983E1,1.129082663E1
5.990297616E0,-1.281999946E0,1.623999953E0,1.144799995E1,1.163346907E1
5.993387000E0,-1.375000000E0,1.539000034E0,1.177299976E1,1.195251729E1
5.998728693E0,-1.465000033E0,1.437999964E0,1.207600021E1,1.224923876E1
6.003522616E0,-1.572999954E0,1.340999961E0,1.235000038E1,1.252178578E1
6.008400616E0,-1.690999985E0,1.269999981E0,1.258600044E1,1.276243660E1
6.013925077E0,-1.805999994E0,1.197000027E0,1.279500008E1,1.297715192E1
6.018964616E0,-1.922000051E0,1.105999947E0,1.296000004E1,1.314834290E1
6.023492539E0,-1.993999958E0,1.016000032E0,1.307100010E1,1.326119661E1
6.029787770E0,-1.950999975E0,9.689999819E-1,1.313799953E1,1.331737187E1
6.033445385E0,-1.875000000E0,9.789999723E-1,1.313899994E1,1.330816987E1
6.039518385E0,-1.554999948E0,1.103000045E0,1.289599991E1,1.303615923E1
6.043389000E0,-1.468000054E0,1.148000002E0,1.270699978E1,1.284292691E1
6.048430154E0,-1.368000031E0,1.167999983E0,1.217300034E1,1.230518530E1
6.054177385E0,-1.319000006E0,1.077999949E0,1.117599964E1,1.130507907E1
6.058442154E0,-1.287999988E0,1.077999949E0,1.082600021E1,1.095551498E1
6.063705847E0,-1.182999969E0,1.182000041E0,1.013899994E1,1.027598817E1
6.068457693E0,-1.075000048E0,1.375000000E0,9.468999863E0,9.628510191E0
6.074034616E0,-1.054000020E0,1.588000059E0,8.883999825E0,9.086149521E0
6.078426000E0,-1.192000031E0,1.781999946E0,8.493000031E0,8.759419924E0
6.083507923E0,-1.514999986E0,1.889999986E0,8.416999817E0,8.758607813E0
6.089665616E0,-2.279999971E0,1.751999974E0,9.076999664E0,9.521545394E0
6.093393308E0,-2.566999912E0,1.626000047E0,9.524000168E0,9.996996744E0
6.098497462E0,-3.069000006E0,1.277999997E0,1.075699997E1,1.125900055E1
6.103403000E0,-3.302000046E0,8.960000277E-1,1.232100010E1,1.278722268E1
6.108401923E0,-3.257999897E0,5.070000291E-1,1.394400024E1,1.432852941E1
6.113492693E0,-3.128000021E0,5.000000075E-2,1.544499969E1,1.575864524E1
6.118557077E0,-3.052999973E0,-4.979999959E-1,1.676799965E1,1.705094206E1
6.123398308E0,-2.982000113E0,-1.065999985E0,1.787899971E1,1.815729361E1
6.128392847E0,-2.756999969E0,-1.531000018E0,1.877499962E1,1.903800464E1
6.136536077E0,-2.026000023E0,-1.868000031E0,1.957600021E1,1.976901324E1
6.139231308E0,-1.738999963E0,-1.883000016E0,1.966300011E1,1.982935660E1
6.143399923E0,-1.236999989E0,-1.799999952E0,1.954199982E1,1.966367020E1
6.148422385E0,-9.150000215E-1,-1.600999951E0,1.903899956E1,1.912809269E1
6.153601077E0,-8.029999733E-1,-1.350000024E0,1.818199921E1,1.824972340E1
6.158392923E0,-9.390000105E-1,-1.100000024E0,1.694700050E1,1.700860215E1
6.163742077E0,-1.338000059E0,-8.780000210E-1,1.539400005E1,1.547696242E1
6.168413770E0,-1.886000037E0,-6.830000281E-1,1.373999977E1,1.388564291E1
6.173662000E0,-2.400000095E0,-4.769999981E-1,1.225699997E1,1.249886306E1
6.178391539E0,-2.778000116E0,-2.540000081E-1,1.109700012E1,1.144225556E1
6.184007539E0,-3.030999899E0,-2.800000086E-2,1.022399998E1,1.066386046E1
6.188401154E0,-3.114000082E0,9.399999678E-2,9.857999802E0,1.033856821E1
6.193461000E0,-3.224999905E0,3.529999852E-1,9.197999954E0,9.753380774E0
6.200064923E0,-3.239000082E0,7.630000114E-1,8.300000191E0,8.942219731E0
6.203419385E0,-3.204999924E0,8.899999857E-1,8.041999817E0,8.702751607E0
6.208423693E0,-3.112999916E0,1.138000011E0,7.614999771E0,8.305060747E0
6.213532077E0,-3.025000095E0,1.355999947E0,7.281000137E0,8.000145276E0
6.218483923E0,-2.996999979E0,1.503000021E0,7.033999920E0,7.792186651E0
6.224166616E0,-3.088000059E0,1.565000057E0,6.815999985E0,7.644790732E0
6.228421847E0,-3.134000063E0,1.552000046E0,6.782999992E0,7.631497195E0
6.233415231E0,-3.210999966E0,1.514000058E0,6.787000179E0,7.659379113E0
6.238382693E0,-3.236999989E0,1.485999942E0,6.863999844E0,7.733101487E0
6.243431693E0,-3.184999943E0,1.465000033E0,6.992000103E0,7.821669590E0
6.251295847E0,-2.940000057E0,1.417999983E0,7.289000034E0,7.986478936E0
6.253386231E0,-2.815000057E0,1.401000023E0,7.415999889E0,8.055065533E0
6.258421539E0,-2.533999920E0,1.368000031E0,7.671999931E0,8.194642312E0
6.263424539E0,-2.246999979E0,1.337000012E0,7.907999992E0,8.329048074E0
6.269386231E0,-1.968000054E0,1.279000044E0,8.119000435E0,8.451451555E0
6.273424616E0,-1.713000059E0,1.190999985E0,8.317000389E0,8.574692160E0
6.278409308E0,-1.488999963E0,1.087000012E0,8.515999794E0,8.713262443E0
6.283438539E0,-1.284999967E0,9.810000062E-1,8.727999687E0,8.876461258E0
6.288478539E0,-1.108000040E0,8.830000162E-1,8.951000214E0,9.062436645E0
6.293399231E0,-9.440000057E-1,7.910000086E-1,9.196000099E0,9.278105132E0
6.299254308E0,-8.149999976E-1,7.189999819E-1,9.482000351E0,9.544082807E0
6.303414847E0,-7.580000162E-1,6.769999862E-1,9.772999763E0,9.825701877E0
6.308430000E0,-7.490000129E-1,6.480000019E-1,1.000000000E1,1.004892557E1
6.313535077E0,-7.599999905E-1,6.169999838E-1,1.011699963E1,1.016424962E1
6.318382923E0,-7.760000229E-1,5.979999900E-1,1.012600040E1,1.017328188E1
6.323431770E0,-7.720000148E-1,5.929999948E-1,1.002600002E1,1.007314794E1
6.328421462E0,-7.390000224E-1,6.110000014E-1,9.767999649E0,9.814950799E0
6.333675770E0,-6.759999990E-1,6.819999814E-1,9.364000320E0,9.413107987E0
6.338402693E0,-5.899999738E-1,7.929999828E-1,8.847999573E0,8.903035740E0
6.343390847E0,-5.429999828E-1,9.179999828E-1,8.253000259E0,8.321633628E0
6.349398923E0,-5.569999814E-1,1.042999983E0,7.659999847E0,7.750722263E0
6.353429308E0,-5.730000138E-1,1.105999947E0,7.402999878E0,7.507061482E0
6.358388616E0,-6.150000095E-1,1.218000054E0,6.974999905E0,7.107205697E0
6.363420231E0,-6.349999905E-1,1.317999959E0,6.676000118E0,6.834422174E0
6.368456462E0,-6.269999743E-1,1.384999990E0,6.510000229E0,6.685166933E0
6.373428770E0,-5.989999771E-1,1.417000055E0,6.425000191E0,6.606611657E0
6.378438077E0,-5.529999733E-1,1.455000043E0,6.366000175E0,6.553532813E0
6.383618462E0,-4.799999893E-1,1.509999990E0,6.324999809E0,6.520438831E0
6.388442154E0,-3.840000033E-1,1.552999973E0,6.323999882E0,6.523207756E0
6.393382462E0,-3.100000024E-1,1.562999964E0,6.366000175E0,6.562394923E0
6.398428385E0,-2.750000060E-1,1.550999999E0,6.464000225E0,6.653159017E0
6.403383308E0,-2.709999979E-1,1.541000009E0,6.657999992E0,6.839377598E0
6.408437616E0,-2.569999993E-1,1.549999952E0,6.914999962E0,7.091246246E0
6.413390231E0,-2.070000023E-1,1.560999990E0,7.186999798E0,7.357481639E0
6.418425693E0,-1.739999950E-1,1.554999948E0,7.461999893E0,7.624286409E0
6.423419616E0,-1.840000004E-1,1.539999962E0,7.715000153E0,7.869350878E0
6.428422539E0,-2.189999968E-1,1.521000028E0,7.927999973E0,8.075554821E0
6.433752924E0,-2.689999938E-1,1.496000051E0,8.085000038E0,8.226639822E0
6.438385616E0,-3.289999962E-1,1.470000029E0,8.210000038E0,8.347049881E0
6.443426539E0,-3.680000007E-1,1.458999991E0,8.350999832E0,8.485476013E0
6.448434693E0,-3.440000117E-1,1.476999998E0,8.527999878E0,8.661792362E0
6.453536847E0,-2.450000048E-1,1.513000011E0,8.762999535E0,8.896030288E0
6.458406847E0,-1.129999980E-1,1.550999999E0,9.064999580E0,9.197422867E0
6.463406847E0,1.300000027E-2,1.601999998E0,9.571000099E0,9.704154569E0
6.467503693E0,1.300000027E-2,1.601999998E0,9.571000099E0,9.704154569E0
6.473420847E0,7.699999958E-2,1.628999949E0,1.005599976E1,1.018737949E1
6.478533154E0,1.129999980E-1,1.661999941E0,1.034599972E1,1.047925202E1
6.483401154E0,1.289999932E-1,1.700999975E0,1.058300018E1,1.071960516E1
6.488418231E0,1.110000014E-1,1.751000047E0,1.076900005E1,1.091098915E1
6.493498154E0,6.499999762E-2,1.817999959E0,1.094999981E1,1.110008309E1
6.499656924E0,1.300000027E-2,1.871000051E0,1.112199974E1,1.127828393E1
6.504580770E0,-1.899999939E-2,1.893000007E0,1.127200031E1,1.142986444E1
6.508397770E0,-2.300000004E-2,1.906999946E0,1.134099960E1,1.150023695E1
6.516118693E0,-4.300000146E-2,1.970000029E0,1.159000015E1,1.175631118E1
6.518586308E0,-4.300000146E-2,1.970000029E0,1.159000015E1,1.175631118E1
6.523511616E0,-6.800000370E-2,1.972000003E0,1.171599960E1,1.188099553E1
6.528426693E0,-1.289999932E-1,1.945999980E0,1.187399960E1,1.203309700E1
6.533405154E0,-2.370000035E-1,1.904999971E0,1.209500027E1,1.224639642E1
6.538387539E0,-3.670000136E-1,1.860000014E0,1.239400005E1,1.253816280E1
6.543469770E0,-5.059999824E-1,1.812000036E0,1.273099995E1,1.286925560E1
6.548496616E0,-6.000000238E-1,1.781000018E0,1.301500034E1,1.314998840E1
6.553398154E0,-5.879999995E-1,1.807999969E0,1.314500046E1,1.328177868E1
6.558757693E0,-5.189999938E-1,1.927000046E0,1.311499977E1,1.326596808E1
6.565671693E0,-5.120000243E-1,2.187999964E0,1.281099987E1,1.300658316E1
6.568502924E0,-5.479999781E-1,2.260999918E0,1.265900040E1,1.287100290E1
6.573715000E0,-6.280000210E-1,2.358999968E0,1.231900024E1,1.255854418E1
6.578392616E0,-6.940000057E-1,2.437999964E0,1.197900009E1,1.224426082E1
6.584007077E0,-7.509999871E-1,2.536000013E0,1.168500042E1,1.198058980E1
6.588409616E0,-8.379999995E-1,2.673000097E0,1.152999973E1,1.186541476E1
6.593391462E0,-1.008999944E0,2.785000086E0,1.161100006E1,1.198288900E1
6.599576770E0,-1.309000015E0,2.769999981E0,1.195100021E1,1.233745464E1
6.603411616E0,-1.705000043E0,2.586999893E0,1.253800011E1,1.291514771E1
6.608392154E0,-2.079999924E0,2.298000097E0,1.334799957E1,1.370314915E1
6.613444462E0,-2.322999954E0,1.985999942E0,1.429599953E1,1.461903304E1
6.618381231E0,-2.400000095E0,1.669999957E0,1.522700024E1,1.550517451E1
6.623427231E0,-2.367000103E0,1.320000052E0,1.592000008E1,1.614903997E1
6.628428308E0,-2.322999954E0,9.459999800E-1,1.628700066E1,1.647900589E1
6.633397000E0,-2.309999943E0,5.989999771E-1,1.644700050E1,1.661922761E1
6.638670000E0,-2.253999949E0,3.009999990E-1,1.644700050E1,1.660346176E1
6.643433231E0,-2.096999884E0,4.399999976E-2,1.621800041E1,1.635306949E1
6.648959077E0,-1.861999989E0,-1.589999944E-1,1.573700047E1,1.584757106E1
6.653407308E0,-1.544000030E0,-2.919999957E-1,1.501500034E1,1.509700087E1
6.658442924E0,-1.129999995E0,-3.470000029E-1,1.408399963E1,1.413351884E1
6.663552616E0,-6.719999909E-1,-3.140000105E-1,1.306999969E1,1.309103021E1
6.668425616E0,-4.690000117E-1,-2.709999979E-1,1.259500027E1,1.260664245E1
6.673431924E0,-1.729999930E-1,-1.589999944E-1,1.177099991E1,1.177334485E1
6.678439847E0,-3.299999982E-2,-5.000000075E-2,1.112100029E1,1.112116165E1
6.683427385E0,2.199999988E-2,2.800000086E-2,1.056200027E1,1.056206030E1
6.688405000E0,3.999999911E-2,4.699999839E-2,1.008100033E1,1.008118925E1
6.693437770E0,5.200000107E-2,2.899999917E-2,9.730999947E0,9.731182095E0
6.698638847E0,1.080000028E-1,1.499999966E-2,9.484000206E0,9.484626978E0
6.703408231E0,2.310000062E-1,9.999999776E-3,9.288999557E0,9.291876763E0
6.708500770E0,3.869999945E-1,-3.000000026E-3,9.157999992E0,9.166173785E0
6.713430000E0,5.669999719E-1,-9.999999776E-3,9.104000092E0,9.121644952E0
6.718420616E0,8.140000105E-1,1.400000043E-2,9.092000008E0,9.128376425E0
6.723414693E0,1.126999974E0,8.200000226E-2,9.093999863E0,9.163934005E0
6.728459924E0,1.463999987E0,1.840000004E-1,9.081000328E0,9.200093419E0
6.733397077E0,1.768000007E0,2.860000134E-1,9.012000084E0,9.188240612E0
6.738423924E0,1.993000031E0,3.479999900E-1,8.885999680E0,9.113404601E0
6.743459231E0,2.088999987E0,3.689999878E-1,8.741999626E0,8.995701162E0
6.749429616E0,2.052999973E0,3.709999919E-1,8.649999619E0,8.898030304E0
6.753580077E0,1.902999997E0,3.560000062E-1,8.618000031E0,8.832783792E0
6.758421847E0,1.656000018E0,3.370000124E-1,8.609000206E0,8.773299813E0
6.764105462E0,1.355999947E0,3.179999888E-1,8.618000031E0,8.729821555E0
6.769655077E0,1.044999957E0,2.840000093E-1,8.633999825E0,8.701645470E0
6.773942077E0,7.680000067E-1,2.489999980E-1,8.651000023E0,8.688591739E0
6.778404077E0,5.550000072E-1,2.230000049E-1,8.654999733E0,8.675642592E0
6.783425462E0,3.919999897E-1,2.140000015E-1,8.663000107E0,8.674504645E0
6.788409077E0,2.599999905E-1,2.339999974E-1,8.685000420E0,8.692041664E0
6.793643000E0,1.650000066E-1,2.569999993E-1,8.687999725E0,8.693366047E0
6.798572770E0,9.200000018E-2,2.540000081E-1,8.680000305E0,8.684203205E0
6.803530385E0,4.600000009E-2,2.460000068E-1,8.644000053E0,8.647622154E0
6.808421693E0,7.900000364E-2,2.569999993E-1,8.565999985E0,8.570218535E0
6.813614924E0,2.090000063E-1,3.079999983E-1,8.449000359E0,8.457195283E0
6.818436693E0,3.899999857E-1,3.930000067E-1,8.296999931E0,8.315452895E0
6.823416616E0,5.490000248E-1,4.830000103E-1,8.151000023E0,8.183733342E0
6.831015539E0,6.850000024E-1,6.060000062E-1,8.065999985E0,8.117685431E0
6.835464308E0,6.930000186E-1,6.420000196E-1,8.062999725E0,8.118151121E0
6.838396693E0,6.819999814E-1,6.790000200E-1,8.067000389E0,8.124202132E0
6.843467693E0,6.240000129E-1,7.530000210E-1,8.062999725E0,8.122090225E0
6.848430385E0,5.310000181E-1,8.289999962E-1,8.053000450E0,8.112953732E0
6.856661154E0,2.319999933E-1,9.819999933E-1,7.968999863E0,8.032627640E0
6.859081770E0,1.599999964E-1,1.019000053E0,7.914999962E0,7.981928683E0
6.863702385E0,9.200000018E-2,1.060999990E0,7.843999863E0,7.915966070E0
6.868383077E0,-1.700000092E-2,1.115000010E0,7.664999962E0,7.745691605E0
6.873392154E0,-1.000000015E-1,1.162999988E0,7.467999935E0,7.558676604E0
6.879721154E0,-2.099999934E-1,1.307999969E0,7.211999893E0,7.332660252E0
6.883426847E0,-2.540000081E-1,1.368000031E0,7.144999981E0,7.279214574E0
6.888414385E0,-3.589999974E-1,1.470999956E0,7.027999878E0,7.189263116E0
6.893448308E0,-5.009999871E-1,1.534000039E0,6.943999767E0,7.129045509E0
6.898401693E0,-6.499999762E-1,1.552000046E0,6.907999992E0,7.109969621E0
6.903395231E0,-7.609999776E-1,1.567999959E0,6.936999798E0,7.152601697E0
6.908458616E0,-8.149999976E-1,1.601999998E0,7.005000114E0,7.231919219E0
6.914319847E0,-8.230000138E-1,1.657999992E0,7.089000225E0,7.326678455E0
6.918417770E0,-8.040000200E-1,1.700999975E0,7.204999924E0,7.446599281E0
6.923417231E0,-7.659999728E-1,1.697999954E0,7.362999916E0,7.594980419E0
6.928429616E0,-7.369999886E-1,1.666000009E0,7.568999767E0,7.785144988E0
6.933388385E0,-7.250000238E-1,1.631000042E0,7.818999767E0,8.020133636E0
6.938382077E0,-6.999999881E-1,1.625000000E0,8.112999916E0,8.303697527E0
6.943380308E0,-6.570000052E-1,1.639999986E0,8.407999992E0,8.591607116E0
6.948574924E0,-6.140000224E-1,1.641000032E0,8.670000076E0,8.845268705E0
6.953382924E0,-5.799999833E-1,1.644000053E0,8.859999657E0,9.029879848E0
6.958381154E0,-5.490000248E-1,1.672000051E0,8.946000099E0,9.117450464E0
6.963764539E0,-5.350000262E-1,1.743999958E0,8.979999542E0,9.163413810E0
6.968429154E0,-5.410000086E-1,1.840999961E0,8.977999687E0,9.180764688E0
6.973588077E0,-5.849999785E-1,1.924999952E0,8.927000046E0,9.150911409E0
6.979371693E0,-6.809999943E-1,1.980000019E0,8.847999573E0,9.092373590E0
6.983431539E0,-7.850000262E-1,2.013000011E0,8.784000397E0,9.045830921E0
6.988402000E0,-8.220000267E-1,2.032000065E0,8.758000374E0,9.028138172E0
6.994058616E0,-8.669999838E-1,2.091000080E0,8.720999718E0,9.009983706E0
6.998433154E0,-8.669999838E-1,2.105000019E0,8.725000381E0,9.017114045E0
7.003462077E0,-8.700000048E-1,2.145999908E0,8.793000221E0,9.092803116E0
7.008526616E0,-8.830000162E-1,2.164000034E0,8.927000046E0,9.227887895E0
7.013435308E0,-8.899999857E-1,2.164999962E0,9.116999626E0,9.412704553E0
7.018388077E0,-8.889999986E-1,2.163000107E0,9.310999870E0,9.600187969E0
7.023436539E0,-8.909999728E-1,2.151000023E0,9.510000229E0,9.790852180E0
7.028532847E0,-8.830000162E-1,2.108999968E0,9.772999763E0,1.003688668E1
7.033780539E0,-8.629999757E-1,2.026999950E0,1.008100033E1,1.031891784E1
7.038474385E0,-8.759999871E-1,1.952000022E0,1.038700008E1,1.060506722E1
7.043497231E0,-9.490000010E-1,1.902999997E0,1.068299961E1,1.089258880E1
7.048415000E0,-1.046000004E0,1.861999989E0,1.096500015E1,1.117105135E1
7.053390231E0,-1.156000018E0,1.825999975E0,1.123200035E1,1.143802622E1
7.058383616E0,-1.289000034E0,1.804999948E0,1.144900036E1,1.166186757E1
7.063412000E0,-1.411000013E0,1.812999964E0,1.158800030E1,1.181353634E1
7.068406154E0,-1.511000037E0,1.868999958E0,1.163099957E1,1.187671810E1
7.073433462E0,-1.628000021E0,1.973999977E0,1.160200024E1,1.188080256E1
7.078660308E0,-1.751999974E0,2.102999926E0,1.154800034E1,1.186795788E1
7.083449077E0,-1.873000026E0,2.243000031E0,1.147099972E1,1.183735666E1
7.088541693E0,-1.990000010E0,2.371999979E0,1.138899994E1,1.180236432E1
7.093397231E0,-2.084000111E0,2.461999893E0,1.131999969E1,1.177059442E1
7.098387847E0,-2.128999949E0,2.516999960E0,1.122299957E1,1.169716414E1
7.103476077E0,-2.108000040E0,2.571000099E0,1.098999977E1,1.148189012E1
7.108598924E0,-2.086999893E0,2.605999947E0,1.057600021E1,1.109047270E1
7.113392770E0,-2.170000076E0,2.582999945E0,1.015200043E1,1.069784566E1
7.118683154E0,-2.364000082E0,2.525000095E0,9.880000114E0,1.046797612E1
7.123490000E0,-2.619999886E0,2.515000105E0,9.805000305E0,1.045598661E1
7.129112847E0,-2.891999960E0,2.594000101E0,9.902000427E0,1.063682813E1
7.133431770E0,-3.125999928E0,2.687999964E0,1.015400028E1,1.095905749E1
7.138401847E0,-3.319999933E0,2.706000090E0,1.057999992E1,1.141408053E1
7.143838077E0,-3.512000084E0,2.595000029E0,1.119999981E1,1.202115491E1
7.148424847E0,-3.602999926E0,2.482000113E0,1.159099960E1,1.238923746E1
7.153509770E0,-3.739000082E0,2.174999952E0,1.250800037E1,1.323483357E1
7.158452308E0,-3.770999908E0,1.784000039E0,1.348999977E1,1.412031127E1
7.163425616E0,-3.686000109E0,1.350999951E0,1.442500019E1,1.494966315E1
7.168429000E0,-3.540999889E0,8.939999938E-1,1.531700039E1,1.574637790E1
7.173504077E0,-3.357000113E0,4.589999914E-1,1.617499924E1,1.652606218E1
7.178437539E0,-3.117000103E0,1.319999993E-1,1.691300011E1,1.719833382E1
7.183441231E0,-2.790999889E0,-5.499999970E-2,1.739399910E1,1.761658054E1
7.188374000E0,-2.430999994E0,-1.120000035E-1,1.754100037E1,1.770900897E1
7.193602000E0,-2.084000111E0,-7.299999893E-2,1.737599945E1,1.750067834E1
7.198375770E0,-1.710999966E0,2.000000095E-3,1.691300011E1,1.699932638E1
7.203427924E0,-1.370000005E0,7.999999821E-2,1.612999916E1,1.618827270E1
7.208662924E0,-1.189000010E0,1.490000039E-1,1.510400009E1,1.515146002E1
7.214039462E0,-1.222000003E0,2.090000063E-1,1.402799988E1,1.408267537E1
7.218424385E0,-1.393000007E0,2.689999938E-1,1.302999973E1,1.310700969E1
7.223414693E0,-1.593000054E0,3.440000117E-1,1.214299965E1,1.225187437E1
7.228443231E0,-1.751999974E0,4.460000098E-1,1.139900017E1,1.154147411E1
7.233454385E0,-1.868999958E0,5.690000057E-1,1.079800034E1,1.097331915E1
7.239205231E0,-2.013000011E0,6.880000234E-1,1.031400013E1,1.053110211E1
7.243442693E0,-2.200000048E0,7.799999714E-1,9.930000305E0,1.020065225E1
7.248436616E0,-2.394000053E0,8.640000224E-1,9.637000084E0,9.967422080E0
7.253429385E0,-2.582999945E0,9.599999785E-1,9.428999901E0,9.823417318E0
7.258455539E0,-2.773000002E0,1.052000046E0,9.298999786E0,9.760513825E0
7.263464077E0,-2.918999910E0,1.139000058E0,9.232999802E0,9.750188047E0
7.268380154E0,-2.987999916E0,1.230000019E0,9.222000122E0,9.771710689E0
7.273531847E0,-2.997999907E0,1.327000022E0,9.244999886E0,9.809126127E0
7.278899385E0,-2.961999893E0,1.414999962E0,9.251999855E0,9.817085595E0
7.283426924E0,-2.888000011E0,1.470999956E0,9.218000412E0,9.771177848E0
7.288415308E0,-2.795000076E0,1.516000032E0,9.140999794E0,9.678231179E0
7.293498770E0,-2.674000025E0,1.560999990E0,9.036000252E0,9.551769347E0
7.298442539E0,-2.523000002E0,1.605000019E0,8.937000275E0,9.423986841E0
7.303420539E0,-2.358000040E0,1.641000032E0,8.854999542E0,9.309353479E0
7.308691693E0,-2.170000076E0,1.651999950E0,8.784000397E0,9.197644652E0
7.313455154E0,-2.059999943E0,1.649000049E0,8.743000031E0,9.132516108E0
7.318370847E0,-1.817999959E0,1.643000007E0,8.673000336E0,9.012519498E0
7.323447539E0,-1.611999989E0,1.629999995E0,8.633999825E0,8.933162761E0
7.328418385E0,-1.460000038E0,1.608000040E0,8.626999855E0,8.896200916E0
7.333502770E0,-1.330000043E0,1.580999970E0,8.644000053E0,8.887474216E0
7.338433539E0,-1.207000017E0,1.546000004E0,8.718000412E0,8.935910487E0
7.345032231E0,-1.011999965E0,1.481999993E0,8.940999985E0,9.119317334E0
7.349069616E0,-9.240000248E-1,1.457999945E0,9.031999588E0,9.195463906E0
7.353422000E0,-7.530000210E-1,1.417000055E0,9.218999863E0,9.357609559E0
7.359027077E0,-6.000000238E-1,1.386000037E0,9.373999596E0,9.494886232E0
7.363425616E0,-5.030000210E-1,1.381000042E0,9.491999626E0,9.605114629E0
7.368436154E0,-4.869999886E-1,1.412999988E0,9.536000252E0,9.652411033E0
7.374919231E0,-5.939999819E-1,1.519999981E0,9.413999557E0,9.554403361E0
7.378450847E0,-6.510000229E-1,1.552999973E0,9.335000038E0,9.485664745E0
7.383424693E0,-7.810000181E-1,1.585999966E0,9.098999977E0,9.269150851E0
7.388421462E0,-8.989999890E-1,1.606999993E0,8.779000282E0,8.970033217E0
7.394528539E0,-9.739999771E-1,1.641999960E0,8.383999825E0,8.598621569E0
7.398567000E0,-9.969999790E-1,1.697999954E0,7.927999973E0,8.168867509E0
7.403506847E0,-9.729999900E-1,1.764000058E0,7.487999916E0,7.754261276E0
7.408401462E0,-8.939999938E-1,1.820000052E0,7.106999874E0,7.390607782E0
7.414960770E0,-7.730000019E-1,1.884999990E0,6.791999817E0,7.090981278E0
7.418419154E0,-6.499999762E-1,1.970000029E0,6.572000027E0,6.891631478E0
7.424048385E0,-5.569999814E-1,2.048000097E0,6.459000111E0,6.798767227E0
7.428389077E0,-5.090000033E-1,2.098000050E0,6.426000118E0,6.778949973E0
7.433510231E0,-5.030000210E-1,2.121999979E0,6.431000233E0,6.790703714E0
7.438418616E0,-5.329999924E-1,2.141000032E0,6.462999821E0,6.829226663E0
7.444332308E0,-5.690000057E-1,2.153000116E0,6.532000065E0,6.901173477E0
7.448421539E0,-5.559999943E-1,2.151999950E0,6.627999783E0,6.990752527E0
7.453421924E0,-4.749999940E-1,2.151000023E0,6.732999802E0,7.084187492E0
7.460124924E0,-3.540000021E-1,2.141999960E0,6.843999863E0,7.180098464E0
7.463431231E0,-2.269999981E-1,2.132999897E0,6.941999912E0,7.265850283E0
7.468418462E0,-1.650000066E-1,2.131999969E0,6.984000206E0,7.304033663E0
7.473419231E0,-5.000000075E-2,2.147000074E0,7.047999859E0,7.367931279E0
7.478698385E0,1.010000035E-1,2.190000057E0,7.155000210E0,7.483336773E0
7.483427000E0,1.400000006E-1,2.200000048E0,7.196000099E0,7.526089133E0
7.489067693E0,1.669999957E-1,2.200999975E0,7.282999992E0,7.610149721E0
7.493677616E0,1.459999979E-1,2.200999975E0,7.302000046E0,7.627904139E0
7.498508924E0,7.299999893E-2,2.206000090E0,7.387000084E0,7.709703991E0
7.503420924E0,-1.400000043E-2,2.210999966E0,7.526999950E0,7.845026775E0
7.508997770E0,-7.900000364E-2,2.229000092E0,7.671000004E0,7.988674700E0
7.513468462E0,-8.699999750E-2,2.273000002E0,7.807000160E0,8.131626498E0
7.518430924E0,-5.900000036E-2,2.339999914E0,7.933000088E0,8.271128762E0
7.524658924E0,-4.699999839E-2,2.444999933E0,8.157999992E0,8.516642387E0
7.530047539E0,-7.400000095E-2,2.473999977E0,8.347999573E0,8.707195229E0
7.533674616E0,-9.399999678E-2,2.480999947E0,8.454000473E0,8.811034033E0
7.538417462E0,-1.239999980E-1,2.499000072E0,8.710000038E0,9.062255681E0
7.543559693E0,-1.469999999E-1,2.520999908E0,9.039999962E0,9.386088048E0
7.548427308E0,-1.679999977E-1,2.535000086E0,9.407999992E0,9.744994268E0
7.553484847E0,-1.829999983E-1,2.540999889E0,9.755999565E0,1.008313924E1
7.558433770E0,-1.909999996E-1,2.553999901E0,1.008699989E1,1.040706315E1
7.563427231E0,-2.010000050E-1,2.588999987E0,1.040699959E1,1.072608793E1
7.568417231E0,-2.269999981E-1,2.621000051E0,1.067800045E1,1.099731167E1
7.573510000E0,-2.800000012E-1,2.621000051E0,1.090400028E1,1.121807753E1
7.578462539E0,-3.370000124E-1,2.608000040E0,1.111900043E1,1.142573428E1
7.583419847E0,-3.910000026E-1,2.595999956E0,1.134200001E1,1.164186673E1
7.588531693E0,-4.560000002E-1,2.589999914E0,1.157299995E1,1.186803958E1
7.594168693E0,-5.550000072E-1,2.596999884E0,1.181999969E1,1.211465337E1
7.598450231E0,-6.880000234E-1,2.591000080E0,1.208199978E1,1.237583711E1
7.603396616E0,-8.360000253E-1,2.532999992E0,1.234899998E1,1.263379537E1
7.608404000E0,-1.021000028E0,2.426000118E0,1.261400032E1,1.288568670E1
7.613845000E0,-1.217000008E0,2.311000109E0,1.285299969E1,1.311569333E1
7.618392000E0,-1.355999947E0,2.206000090E0,1.303499985E1,1.328971005E1
7.623387462E0,-1.386000037E0,2.163000107E0,1.308699989E1,1.333675867E1
7.628397847E0,-1.378999949E0,2.098000050E0,1.306400013E1,1.330305771E1
7.633418154E0,-1.325000048E0,2.072999954E0,1.283500004E1,1.306867170E1
7.638447924E0,-1.253000021E0,2.111999989E0,1.237600040E1,1.261728731E1
7.644173000E0,-1.069000006E0,2.321000099E0,1.137399960E1,1.165751557E1
7.648428231E0,-9.779999852E-1,2.411999941E0,1.097700024E1,1.128134575E1
7.653462231E0,-7.360000014E-1,2.608999968E0,1.015600014E1,1.051156105E1
7.658470693E0,-4.420000017E-1,2.796999931E0,9.381999969E0,9.800025308E0
7.663438693E0,-1.379999965E-1,2.964999914E0,8.800000191E0,9.287102446E0
7.669888154E0,2.879999876E-1,3.173000097E0,8.364999771E0,8.951206331E0
7.673442693E0,4.239999950E-1,3.229000092E0,8.314999580E0,8.930029989E0
7.678379231E0,6.769999862E-1,3.328000069E0,8.336000443E0,9.001267512E0
7.683422462E0,8.450000286E-1,3.398999929E0,8.515999794E0,9.208120224E0
7.688545308E0,8.870000243E-1,3.431999922E0,8.824999809E0,9.510310938E0
7.693639154E0,8.259999752E-1,3.407999992E0,9.229000092E0,9.872749495E0
7.698394077E0,6.990000010E-1,3.325000048E0,9.708000183E0,1.028540198E1
7.705981847E0,3.849999905E-1,3.147000074E0,1.061699963E1,1.108027597E1
7.708459462E0,2.349999994E-1,3.061000109E0,1.097999954E1,1.140111120E1
7.713548770E0,-1.080000028E-1,2.823999882E0,1.175100040E1,1.208605187E1
7.718399539E0,-4.760000110E-1,2.513999939E0,1.254899979E1,1.280719202E1
7.723414924E0,-8.360000253E-1,2.180999994E0,1.327499962E1,1.347891954E1
7.728410539E0,-1.133000016E0,1.866000056E0,1.376399994E1,1.393604462E1
7.733505385E0,-1.332999945E0,1.572999954E0,1.395300007E1,1.410451802E1
7.738516077E0,-1.480000019E0,1.276999950E0,1.398600006E1,1.412194486E1
7.743438539E0,-1.580999970E0,9.390000105E-1,1.402200031E1,1.414205695E1
7.748451154E0,-1.603999972E0,6.029999852E-1,1.407800007E1,1.418190787E1
7.753532308E0,-1.539999962E0,3.370000124E-1,1.417500019E1,1.426239108E1
7.759640231E0,-1.386000037E0,1.800000072E-1,1.432900047E1,1.439700145E1
7.763445077E0,-1.161000013E0,1.319999993E-1,1.446700001E1,1.451411156E1
7.768767770E0,-9.309999943E-1,1.589999944E-1,1.451000023E1,1.454070661E1
7.774802001E0,-7.630000114E-1,2.039999962E-1,1.440699959E1,1.442863203E1
7.778398385E0,-6.460000277E-1,2.210000008E-1,1.409599972E1,1.411252511E1
7.783424924E0,-5.619999766E-1,2.220000029E-1,1.360400009E1,1.361741335E1
7.789340231E0,-5.720000267E-1,2.569999993E-1,1.300199986E1,1.301711309E1
7.793396539E0,-6.140000224E-1,2.960000038E-1,1.267099953E1,1.268931996E1
7.798390770E0,-7.390000224E-1,4.189999998E-1,1.200300026E1,1.203302527E1
7.803383539E0,-8.230000138E-1,5.920000076E-1,1.137100029E1,1.141610444E1
7.808413462E0,-8.460000157E-1,7.799999714E-1,1.085200024E1,1.091283763E1
7.813485308E0,-8.489999771E-1,9.330000281E-1,1.044200039E1,1.051792100E1
7.818432693E0,-8.479999900E-1,1.011999965E0,1.009899998E1,1.018494224E1
7.823436539E0,-8.240000010E-1,1.059999943E0,9.798999786E0,9.890549666E0
7.828393077E0,-7.419999838E-1,1.121999979E0,9.555000305E0,9.649221666E0
7.833650693E0,-6.079999804E-1,1.156000018E0,9.392000198E0,9.482387239E0
7.838392462E0,-4.589999914E-1,1.133999944E0,9.312999725E0,9.393008078E0
7.844128001E0,-2.949999869E-1,1.075000048E0,9.293999672E0,9.360613228E0
7.848422154E0,-1.180000007E-1,1.006000042E0,9.319000244E0,9.373885301E0
7.853503847E0,4.300000146E-2,9.399999976E-1,9.413999557E0,9.460910985E0
7.858905385E0,1.790000051E-1,8.629999757E-1,9.546999931E0,9.587597074E0
7.863678077E0,2.930000126E-1,7.839999795E-1,9.664999962E0,9.701171539E0
7.868403385E0,3.779999912E-1,7.419999838E-1,9.722999573E0,9.758594605E0
7.873451693E0,4.189999998E-1,7.500000000E-1,9.699000359E0,9.736974322E0
7.878423308E0,4.320000112E-1,8.000000119E-1,9.586999893E0,9.630015108E0
7.883425231E0,4.420000017E-1,8.690000176E-1,9.399000168E0,9.449430099E0
7.888394616E0,4.390000105E-1,9.319999814E-1,9.177000046E0,9.234645354E0
7.893470231E0,3.989999890E-1,9.810000062E-1,8.928000450E0,8.990592530E0
7.898493231E0,3.409999907E-1,1.029999971E0,8.666999817E0,8.734647489E0
7.903547231E0,2.949999869E-1,1.095000029E0,8.432000160E0,8.507918474E0
7.908400616E0,2.820000052E-1,1.182000041E0,8.229999542E0,8.319227162E0
7.913465231E0,2.579999864E-1,1.279000044E0,8.057000160E0,8.161964021E0
7.918400770E0,1.850000024E-1,1.353000045E0,7.894999981E0,8.012231825E0
7.924968077E0,9.600000083E-2,1.411000013E0,7.725999832E0,7.854375242E0
7.928432077E0,1.999999955E-2,1.470000029E0,7.592000008E0,7.733030725E0
7.933433616E0,-9.300000221E-2,1.509999990E0,7.514999866E0,7.665766235E0
7.938434001E0,-2.440000027E-1,1.527999997E0,7.447000027E0,7.606058729E0
7.944125539E0,-3.899999857E-1,1.537999988E0,7.350999832E0,7.520288723E0
7.948588462E0,-5.189999938E-1,1.560999990E0,7.261000156E0,7.445012104E0
7.953398847E0,-5.799999833E-1,1.582999945E0,7.229000092E0,7.422986672E0
7.959307462E0,-7.239999771E-1,1.657999992E0,7.205999851E0,7.429641566E0
7.963417462E0,-7.540000081E-1,1.672000051E0,7.224999905E0,7.454174924E0
7.968403077E0,-8.119999766E-1,1.682999969E0,7.276000023E0,7.512124146E0
7.974111231E0,-8.830000162E-1,1.697000027E0,7.342999935E0,7.588092393E0
7.979080001E0,-9.279999733E-1,1.687000036E0,7.381999969E0,7.628963011E0
7.983436077E0,-9.599999785E-1,1.679000020E0,7.400000095E0,7.648571268E0
7.988547616E0,-1.009999990E0,1.646000028E0,7.436999798E0,7.683643801E0
7.993466693E0,-1.049000025E0,1.623000026E0,7.481999874E0,7.727538564E0
7.998388847E0,-1.065000057E0,1.641000032E0,7.539999962E0,7.789653757E0
8.003464385E0,-1.090000033E0,1.675999999E0,7.599999905E0,7.858566957E0
8.008746847E0,-1.172000051E0,1.702999949E0,7.677999973E0,7.951444934E0
8.014264385E0,-1.299999952E0,1.741000056E0,7.769000053E0,8.067121104E0
8.018395154E0,-1.463999987E0,1.805999994E0,7.867000103E0,8.203329968E0
8.023620924E0,-1.651999950E0,1.866999984E0,7.959000111E0,8.340292293E0
8.028397231E0,-1.814000010E0,1.916000009E0,8.034000397E0,8.456170200E0
8.033391462E0,-1.916000009E0,1.940999985E0,8.086999893E0,8.534524254E0
8.039828462E0,-1.952000022E0,1.942000031E0,8.130000114E0,8.583622200E0
8.043411001E0,-1.927000046E0,1.955999970E0,8.182999611E0,8.631381563E0
8.049434231E0,-1.863000035E0,1.986999989E0,8.237999916E0,8.676611130E0
8.053507231E0,-1.789000034E0,2.005000114E0,8.291000366E0,8.715574201E0
8.058437154E0,-1.695000052E0,1.998999953E0,8.347000122E0,8.748796319E0
8.064066770E0,-1.557999969E0,1.975999951E0,8.423000336E0,8.790840367E0
8.068434001E0,-1.409999967E0,1.944000006E0,8.494000435E0,8.826963199E0
8.073531616E0,-1.269999981E0,1.919000030E0,8.520000458E0,8.825297098E0
8.078384231E0,-1.144999981E0,1.896000028E0,8.491999626E0,8.776098148E0
8.083401154E0,-1.065999985E0,1.853000045E0,8.465000153E0,8.730761291E0
8.088508616E0,-1.018000007E0,1.817000031E0,8.487999916E0,8.739791514E0
8.094224616E0,-9.580000043E-1,1.830999970E0,8.567000389E0,8.812707902E0
8.098411001E0,-8.840000033E-1,1.914000034E0,8.673000336E0,8.925569279E0
8.103599539E0,-8.709999919E-1,2.016999960E0,8.800000191E0,9.070112082E0
8.108727462E0,-9.390000105E-1,2.062999964E0,8.965999603E0,9.248072164E0
8.113393308E0,-9.800000191E-1,2.061000109E0,9.062000275E0,9.344943577E0
8.118439770E0,-1.054000020E0,2.030999899E0,9.270999908E0,9.549204990E0
8.123848770E0,-1.118999958E0,1.963999987E0,9.614999771E0,9.877129009E0
8.128428693E0,-1.121000051E0,1.942000031E0,9.718000412E0,9.973341328E0
8.133782231E0,-1.101999998E0,1.916000009E0,9.873999596E0,1.011836588E1
8.139512770E0,-1.034000039E0,1.879999995E0,1.005200005E1,1.027843670E1
8.143648770E0,-1.019000053E0,1.863000035E0,1.011400032E1,1.033451173E1
8.148452308E0,-1.029000044E0,1.838000059E0,1.028499985E1,1.049849071E1
8.153420847E0,-1.090000033E0,1.802000046E0,1.050000000E1,1.070912248E1
8.158575154E0,-1.184999943E0,1.776999950E0,1.073299980E1,1.094345642E1
8.163400231E0,-1.300999999E0,1.800999999E0,1.095100021E1,1.117410433E1
8.168399770E0,-1.430999994E0,1.868999958E0,1.109200001E1,1.133902050E1
8.173424539E0,-1.603999972E0,1.973999977E0,1.112100029E1,1.140816108E1
8.178416924E0,-1.856999993E0,2.071000099E0,1.099499989E1,1.134140701E1
8.183433847E0,-2.153000116E0,2.099999905E0,1.070100021E1,1.111561130E1
8.188443462E0,-2.411000013E0,2.061000109E0,1.028800011E1,1.076585290E1
8.193440770E0,-2.611999989E0,2.006000042E0,9.810999870E0,1.034902404E1
8.198418231E0,-2.778000116E0,2.006000042E0,9.361000061E0,9.968432322E0
8.203437077E0,-2.937000036E0,2.069000006E0,9.048999786E0,9.736073509E0
8.208404847E0,-3.085999966E0,2.128000021E0,8.960000038E0,9.712537287E0
8.213434616E0,-3.203999996E0,2.089999914E0,9.147000313E0,9.914702736E0
8.218702924E0,-3.286000013E0,1.906999946E0,9.659999847E0,1.038027177E1
8.223975154E0,-3.299999952E0,1.595999956E0,1.055200005E1,1.117058282E1
8.228456385E0,-3.183000088E0,1.197999954E0,1.180799961E1,1.228802459E1
8.233468308E0,-2.882999897E0,7.630000114E-1,1.336800003E1,1.369661572E1
8.238387924E0,-2.444000006E0,3.289999962E-1,1.510000038E1,1.530004538E1
8.243416924E0,-1.934000015E0,-7.400000095E-2,1.682699966E1,1.693793818E1
8.248447231E0,-1.401000023E0,-4.090000093E-1,1.839599991E1,1.845380434E1
8.253470539E0,-8.880000114E-1,-6.710000038E-1,1.969799995E1,1.972941933E1
8.258608847E0,-4.210000038E-1,-8.759999871E-1,2.068600082E1,2.070882051E1
8.263464231E0,-2.500000037E-2,-1.042999983E0,2.137100029E1,2.139645128E1
8.268431308E0,1.459999979E-1,-1.100999951E0,2.159600067E1,2.162454073E1
